# epoch_ms,event_ts_ns,AX,AY,AZ,GX,GY,GZ,label,sessionID
1776116964690,1507150041373101,9.718064,-0.18674773,-1.6280571,NaN,NaN,NaN,TONIC,87b69e245e54
1776116964699,1507150050102648,9.7324295,-0.17717093,-1.6184803,-0.22785273,0.27000242,-2.4514022,TONIC,87b69e245e54
1776116964707,1507150058097039,9.725247,-0.17717093,-1.6256629,-0.22785273,0.27000242,-2.4514022,TONIC,87b69e245e54
1776116964715,1507150066091276,9.713276,-0.17477672,-1.6280571,-0.22785273,0.27000242,-2.4514022,TONIC,87b69e245e54
1776116964723,1507150074086668,9.718064,-0.20111294,-1.6280571,-0.22785273,0.27000242,-2.4514022,TONIC,87b69e245e54
1776116964731,1507150082083906,9.727641,-0.19871874,-1.6376339,-0.22785273,0.27000242,-2.4514022,TONIC,87b69e245e54
1776116964739,1507150090079913,9.7084875,-0.20350714,-1.6304513,-0.22785273,0.27000242,-2.4514022,TONIC,87b69e245e54
1776116964747,1507150098104458,9.727641,-0.21068975,-1.6328455,-0.22785273,0.27000242,-2.4514022,TONIC,87b69e245e54
1776116964755,1507150106100158,9.7324295,-0.21308395,-1.6400281,-0.22785273,0.27000242,-2.4514022,TONIC,87b69e245e54
1776116964763,1507150114095549,9.734824,-0.22026655,-1.6352397,-0.22785273,0.27000242,-2.4514022,TONIC,87b69e245e54
1776116964771,1507150122092556,9.746795,-0.22266077,-1.6256629,-0.22785273,0.27000242,-2.4514022,TONIC,87b69e245e54
1776116964779,1507150130089102,9.730036,-0.21308395,-1.6376339,-0.22785273,0.27000242,-2.4514022,TONIC,87b69e245e54
1776116964787,1507150138083340,9.722853,-0.20111294,-1.6184803,-0.22785273,0.27000242,-2.4514022,TONIC,87b69e245e54
1776116964795,1507150146078039,9.718064,-0.18195933,-1.6208745,-0.22785273,0.27000242,-2.4514022,TONIC,87b69e245e54
1776116964803,1507150154105200,9.7084875,-0.17717093,-1.6160861,-0.22785273,0.27000242,-2.4514022,TONIC,87b69e245e54
1776116964811,1507150162099668,9.6845455,-0.17477672,-1.6232687,-0.22785273,0.27000242,-2.4514022,TONIC,87b69e245e54
1776116964819,1507150170097521,9.706094,-0.16759412,-1.6136919,-0.22785273,0.27000242,-2.4514022,TONIC,87b69e245e54
1776116964827,1507150178092221,9.696517,-0.16519992,-1.6208745,-0.002443461,0.0,-0.004276057,TONIC,87b69e245e54
1776116964835,1507150186086459,9.701305,-0.18674773,-1.6376339,-0.0018325958,-0.002443461,-0.002443461,TONIC,87b69e245e54
1776116964843,1507150194083696,9.710882,-0.15562311,-1.6424223,-6.1086525E-4,0.0,-0.0012217305,TONIC,87b69e245e54
1776116964851,1507150202077473,9.713276,-0.16519992,-1.6352397,0.0,0.0036651916,0.0,TONIC,87b69e245e54
1776116964859,1507150210104864,9.694122,-0.1412579,-1.6400281,-0.0012217305,0.009162978,0.0,TONIC,87b69e245e54
1776116964867,1507150218124641,9.701305,-0.15562311,-1.6256629,-0.0012217305,0.01282817,-6.1086525E-4,TONIC,87b69e245e54
1776116964875,1507150226094724,9.701305,-0.16759412,-1.6280571,6.1086525E-4,0.015271631,0.0,TONIC,87b69e245e54
1776116964883,1507150234091039,9.701305,-0.17238252,-1.6136919,-6.1086525E-4,0.018325957,0.0018325958,TONIC,87b69e245e54
1776116964891,1507150242086200,9.689334,-0.16519992,-1.6184803,-0.0018325958,0.019547688,0.0012217305,TONIC,87b69e245e54
1776116964899,1507150250083130,9.7084875,-0.18195933,-1.6136919,-0.0018325958,0.020158553,6.1086525E-4,TONIC,87b69e245e54
1776116964907,1507150258077214,9.689334,-0.16998832,-1.6041151,-0.0012217305,0.018936822,0.0,TONIC,87b69e245e54
1776116964915,1507150266103144,9.679757,-0.15801731,-1.6017209,-6.1086525E-4,0.015882496,0.0012217305,TONIC,87b69e245e54
1776116964923,1507150274099767,9.68694,-0.16759412,-1.5993267,0.0,0.015271631,0.0018325958,TONIC,87b69e245e54
1776116964931,1507150282097927,9.694122,-0.1604115,-1.6065093,-6.1086525E-4,0.016493361,0.0030543262,TONIC,87b69e245e54
1776116964939,1507150290092933,9.710882,-0.17956513,-1.6041151,-6.1086525E-4,0.02076942,0.002443461,TONIC,87b69e245e54
1776116964947,1507150298085556,9.725247,-0.16280572,-1.5921441,-0.0012217305,0.021991149,0.0036651916,TONIC,87b69e245e54
1776116964955,1507150306083101,9.722853,-0.18914193,-1.5777789,-0.0018325958,0.02321288,0.0030543262,TONIC,87b69e245e54
1776116964963,1507150314041570,9.722853,-0.18674773,-1.5586253,-0.002443461,0.022602014,0.004276057,TONIC,87b69e245e54
1776116964971,1507150322072731,9.742006,-0.16998832,-1.5562311,-0.0030543262,0.022602014,0.002443461,TONIC,87b69e245e54
1776116964979,1507150330099738,9.737218,-0.18195933,-1.5466543,-0.0012217305,0.018325957,0.0018325958,TONIC,87b69e245e54
1776116964987,1507150338094591,9.725247,-0.19871874,-1.5442601,-0.002443461,0.015271631,0.004276057,TONIC,87b69e245e54
1776116964995,1507150346089906,9.737218,-0.19153613,-1.5490485,-0.002443461,0.01282817,0.0030543262,TONIC,87b69e245e54
1776116965003,1507150354085990,9.730036,-0.19153613,-1.5490485,-0.0030543262,0.008552114,0.004276057,TONIC,87b69e245e54
1776116965011,1507150362081381,9.734824,-0.20350714,-1.5586253,-0.0018325958,0.007330383,0.002443461,TONIC,87b69e245e54
1776116965018,1507150369614311,9.749189,-0.19871874,-1.5562311,-0.0012217305,0.0018325958,0.002443461,TONIC,87b69e245e54
1776116965027,1507150378103857,9.749189,-0.18914193,-1.5705963,-0.0030543262,0.0,0.004276057,TONIC,87b69e245e54
1776116965035,1507150386098864,9.720459,-0.20829555,-1.5634137,-0.0012217305,6.1086525E-4,0.0018325958,TONIC,87b69e245e54
1776116965043,1507150394094563,9.749189,-0.19871874,-1.5658079,0.0,0.0,0.0012217305,TONIC,87b69e245e54
1776116965051,1507150402089339,9.763555,-0.22026655,-1.5682021,-0.0012217305,0.0018325958,6.1086525E-4,TONIC,87b69e245e54
1776116965059,1507150410086577,9.7563715,-0.20590134,-1.5466543,-6.1086525E-4,-0.002443461,0.0,TONIC,87b69e245e54
1776116965067,1507150418081123,9.746795,-0.21308395,-1.5705963,-6.1086525E-4,-0.0018325958,-6.1086525E-4,TONIC,87b69e245e54
1776116965075,1507150426078591,9.744401,-0.21068975,-1.5610195,-6.1086525E-4,-0.0036651916,-0.0012217305,TONIC,87b69e245e54
1776116965083,1507150434103214,9.718064,-0.20111294,-1.5466543,6.1086525E-4,-0.002443461,-0.0018325958,TONIC,87b69e245e54
1776116965091,1507150442098298,9.742006,-0.20829555,-1.5945383,-0.0012217305,-0.0018325958,-0.0030543262,TONIC,87b69e245e54
1776116965099,1507150450096151,9.746795,-0.19871874,-1.5825673,-6.1086525E-4,-0.0030543262,-0.002443461,TONIC,87b69e245e54
1776116965107,1507150458091312,9.7324295,-0.20111294,-1.5705963,-0.0012217305,-0.0030543262,-0.0018325958,TONIC,87b69e245e54
1776116965115,1507150466085703,9.739613,-0.18674773,-1.5705963,-0.0012217305,-0.0018325958,-0.0030543262,TONIC,87b69e245e54
1776116965122,1507150473733094,9.727641,-0.19393034,-1.5825673,-0.0012217305,-0.004276057,-0.0030543262,TONIC,87b69e245e54
1776116965131,1507150482078102,9.730036,-0.18195933,-1.5586253,-0.0012217305,-0.0030543262,-0.0030543262,TONIC,87b69e245e54
1776116965139,1507150490103647,9.720459,-0.17717093,-1.5729905,-0.0012217305,-0.004276057,-0.004276057,TONIC,87b69e245e54
1776116965147,1507150498097731,9.720459,-0.15562311,-1.5705963,0.0,-0.0061086523,-0.004886922,TONIC,87b69e245e54
1776116965155,1507150506094123,9.7084875,-0.14844051,-1.5777789,-6.1086525E-4,-0.0067195175,-0.0036651916,TONIC,87b69e245e54
1776116965163,1507150514088898,9.718064,-0.1436521,-1.5658079,-0.0012217305,-0.007941248,-0.0018325958,TONIC,87b69e245e54
1776116965171,1507150522086136,9.725247,-0.15801731,-1.5873557,-6.1086525E-4,-0.0061086523,-0.0012217305,TONIC,87b69e245e54
1776116965179,1507150530082066,9.706094,-0.15322891,-1.5849615,-0.0018325958,-0.007941248,6.1086525E-4,TONIC,87b69e245e54
1776116965187,1507150538078073,9.713276,-0.1412579,-1.5873557,-6.1086525E-4,-0.007330383,0.0012217305,TONIC,87b69e245e54
1776116965195,1507150546102388,9.7084875,-0.16280572,-1.5897499,-0.0018325958,-0.007941248,0.0018325958,TONIC,87b69e245e54
1776116965203,1507150554099395,9.703699,-0.17238252,-1.5945383,-0.0018325958,-0.007330383,0.002443461,TONIC,87b69e245e54
1776116965211,1507150562096556,9.715671,-0.15322891,-1.5705963,-0.0018325958,-0.005497787,0.004276057,TONIC,87b69e245e54
1776116965219,1507150570090794,9.720459,-0.16998832,-1.5897499,-0.002443461,-0.008552114,0.0036651916,TONIC,87b69e245e54
1776116965227,1507150578086493,9.725247,-0.16998832,-1.5753847,-0.002443461,-0.008552114,0.004886922,TONIC,87b69e245e54
1776116965235,1507150586080346,9.7084875,-0.17956513,-1.5825673,-0.0030543262,-0.0067195175,0.0036651916,TONIC,87b69e245e54
1776116965243,1507150594101584,9.715671,-0.17238252,-1.5849615,-0.0018325958,-0.0061086523,0.0030543262,TONIC,87b69e245e54
1776116965251,1507150602072975,9.720459,-0.15801731,-1.5753847,0.0,-0.0036651916,0.004276057,TONIC,87b69e245e54
1776116965259,1507150610099367,9.7324295,-0.18674773,-1.5945383,-0.002443461,-0.0030543262,0.0036651916,TONIC,87b69e245e54
1776116965267,1507150618093836,9.720459,-0.17238252,-1.5969325,-0.0030543262,-0.004276057,0.005497787,TONIC,87b69e245e54
1776116965275,1507150626091150,9.718064,-0.17956513,-1.5753847,-0.0030543262,-0.004276057,0.004886922,TONIC,87b69e245e54
1776116965283,1507150634085234,9.718064,-0.18914193,-1.5849615,-0.002443461,-0.0030543262,0.004886922,TONIC,87b69e245e54
1776116965291,1507150642083703,9.703699,-0.19632454,-1.5897499,-0.002443461,-0.004276057,0.0061086523,TONIC,87b69e245e54
1776116965299,1507150650077941,9.722853,-0.20111294,-1.5969325,-0.0030543262,-0.007330383,0.0067195175,TONIC,87b69e245e54
1776116965307,1507150658102486,9.7084875,-0.20829555,-1.5897499,-0.0030543262,-0.005497787,0.005497787,TONIC,87b69e245e54
1776116965315,1507150666099801,9.734824,-0.20590134,-1.6112977,-0.0030543262,-0.002443461,0.004886922,TONIC,87b69e245e54
1776116965323,1507150674093577,9.722853,-0.23223756,-1.6136919,-0.0030543262,-6.1086525E-4,0.0030543262,TONIC,87b69e245e54
1776116965331,1507150682088738,9.730036,-0.22744916,-1.6112977,-0.0030543262,0.0030543262,0.0036651916,TONIC,87b69e245e54
1776116965339,1507150690087206,9.737218,-0.22266077,-1.6017209,-0.002443461,0.0036651916,0.0030543262,TONIC,87b69e245e54
1776116965347,1507150698079752,9.734824,-0.21547815,-1.5921441,-0.004276057,0.004886922,6.1086525E-4,TONIC,87b69e245e54
1776116965355,1507150706078221,9.720459,-0.20350714,-1.5873557,-0.0030543262,0.009773844,-6.1086525E-4,TONIC,87b69e245e54
1776116965363,1507150714101997,9.722853,-0.21547815,-1.5849615,-0.0018325958,0.007941248,-0.002443461,TONIC,87b69e245e54
1776116965371,1507150722097619,9.722853,-0.20350714,-1.5825673,-0.002443461,0.009162978,-0.002443461,TONIC,87b69e245e54
1776116965379,1507150730096165,9.739613,-0.21308395,-1.5777789,-0.0012217305,0.009162978,-0.002443461,TONIC,87b69e245e54
1776116965387,1507150738089017,9.727641,-0.18435353,-1.5610195,-6.1086525E-4,0.009773844,-0.0030543262,TONIC,87b69e245e54
1776116965395,1507150746084101,9.739613,-0.17238252,-1.5634137,0.0,0.01282817,-0.004276057,TONIC,87b69e245e54
1776116965403,1507150754079877,9.734824,-0.17238252,-1.5682021,6.1086525E-4,0.01160644,-0.005497787,TONIC,87b69e245e54
1776116965411,1507150762105730,9.715671,-0.16998832,-1.5586253,-6.1086525E-4,0.008552114,-0.004276057,TONIC,87b69e245e54
1776116965419,1507150770104506,9.7084875,-0.16759412,-1.5658079,6.1086525E-4,0.009773844,-0.004276057,TONIC,87b69e245e54
1776116965427,1507150778068206,9.715671,-0.16280572,-1.5442601,6.1086525E-4,0.009162978,-0.0036651916,TONIC,87b69e245e54
1776116965435,1507150786093059,9.722853,-0.15801731,-1.5610195,0.0,0.0036651916,-0.0030543262,TONIC,87b69e245e54
1776116965443,1507150794113989,9.706094,-0.15083471,-1.5466543,0.0018325958,0.002443461,-0.0030543262,TONIC,87b69e245e54
1776116965451,1507150802086688,9.720459,-0.16280572,-1.5705963,6.1086525E-4,0.0012217305,-0.0018325958,TONIC,87b69e245e54
1776116965459,1507150810081157,9.718064,-0.16519992,-1.5658079,6.1086525E-4,-0.0012217305,-0.0018325958,TONIC,87b69e245e54
1776116965467,1507150818105702,9.720459,-0.14844051,-1.5777789,6.1086525E-4,6.1086525E-4,-0.0030543262,TONIC,87b69e245e54
1776116965474,1507150825753402,9.706094,-0.15562311,-1.5658079,0.0,0.0,-0.0018325958,TONIC,87b69e245e54
1776116965483,1507150834097409,9.713276,-0.1388637,-1.5658079,-6.1086525E-4,-6.1086525E-4,0.0,TONIC,87b69e245e54
1776116965491,1507150842093800,9.720459,-0.14844051,-1.5658079,0.0,0.0018325958,0.002443461,TONIC,87b69e245e54
1776116965499,1507150850089423,9.722853,-0.16280572,-1.5682021,6.1086525E-4,0.0036651916,0.0012217305,TONIC,87b69e245e54
1776116965507,1507150858085122,9.703699,-0.15562311,-1.5634137,0.0,0.0012217305,0.0018325958,TONIC,87b69e245e54
1776116965515,1507150866079360,9.7084875,-0.15801731,-1.5514427,-6.1086525E-4,0.0012217305,0.0018325958,TONIC,87b69e245e54
1776116965523,1507150874076828,9.7084875,-0.15322891,-1.5682021,-0.0018325958,0.0,0.002443461,TONIC,87b69e245e54
1776116965531,1507150882103066,9.7084875,-0.14604631,-1.5753847,-6.1086525E-4,-0.002443461,0.004886922,TONIC,87b69e245e54
1776116965539,1507150890098689,9.706094,-0.16519992,-1.5729905,-0.0012217305,0.002443461,0.005497787,TONIC,87b69e245e54
1776116965547,1507150898092619,9.720459,-0.17477672,-1.5682021,6.1086525E-4,0.0018325958,0.005497787,TONIC,87b69e245e54
1776116965555,1507150906088241,9.730036,-0.18674773,-1.5658079,6.1086525E-4,0.004276057,0.0061086523,TONIC,87b69e245e54
1776116965563,1507150914083710,9.722853,-0.18195933,-1.5729905,-6.1086525E-4,0.007330383,0.0061086523,TONIC,87b69e245e54
1776116965571,1507150922081178,9.710882,-0.20111294,-1.5490485,-6.1086525E-4,0.005497787,0.0067195175,TONIC,87b69e245e54
1776116965579,1507150930107416,9.744401,-0.21068975,-1.5298948,-6.1086525E-4,6.1086525E-4,0.005497787,TONIC,87b69e245e54
1776116965587,1507150938100885,9.7324295,-0.20350714,-1.5442601,-0.0012217305,6.1086525E-4,0.005497787,TONIC,87b69e245e54
1776116965595,1507150946096661,9.739613,-0.21308395,-1.5586253,0.0,-0.0036651916,0.0036651916,TONIC,87b69e245e54
1776116965603,1507150954092899,9.753978,-0.22266077,-1.5586253,0.0,-0.005497787,0.0030543262,TONIC,87b69e245e54
1776116965611,1507150962088059,9.739613,-0.21068975,-1.5634137,-0.0012217305,-0.004886922,0.0018325958,TONIC,87b69e245e54
1776116965619,1507150970139450,9.749189,-0.22026655,-1.553837,0.0,-0.0030543262,0.0,TONIC,87b69e245e54
1776116965627,1507150978080996,9.749189,-0.20590134,-1.5610195,-0.0018325958,-0.0061086523,0.0,TONIC,87b69e245e54
1776116965635,1507150986076695,9.739613,-0.18914193,-1.5634137,0.0,-0.004886922,-6.1086525E-4,TONIC,87b69e245e54
1776116965643,1507150994103394,9.727641,-0.18914193,-1.5658079,0.0,-0.0036651916,0.0,TONIC,87b69e245e54
1776116965651,1507151002121940,9.751583,-0.18435353,-1.5658079,6.1086525E-4,-0.004886922,6.1086525E-4,TONIC,87b69e245e54
1776116965659,1507151010063178,9.7084875,-0.17717093,-1.5682021,0.004276057,0.0012217305,6.1086525E-4,TONIC,87b69e245e54
1776116965667,1507151018019185,9.710882,-0.17717093,-1.5969325,0.0,-0.0012217305,0.0,TONIC,87b69e245e54
1776116965675,1507151026083499,9.718064,-0.17956513,-1.5945383,6.1086525E-4,-0.0018325958,6.1086525E-4,TONIC,87b69e245e54
1776116965683,1507151034080122,9.689334,-0.16998832,-1.5825673,0.0,-6.1086525E-4,0.0,TONIC,87b69e245e54
1776116965691,1507151042107821,9.689334,-0.16998832,-1.5825673,0.0,-6.1086525E-4,-6.1086525E-4,TONIC,87b69e245e54
1776116965698,1507151049669290,9.6845455,-0.16519992,-1.5801731,6.1086525E-4,6.1086525E-4,0.0018325958,TONIC,87b69e245e54
1776116965707,1507151058096066,9.706094,-0.16759412,-1.5729905,0.0012217305,0.0036651916,0.0,TONIC,87b69e245e54
1776116965715,1507151066147842,9.713276,-0.16759412,-1.5753847,-6.1086525E-4,0.0036651916,6.1086525E-4,TONIC,87b69e245e54
1776116965723,1507151074090234,9.701305,-0.15801731,-1.5729905,-0.002443461,0.002443461,-6.1086525E-4,TONIC,87b69e245e54
1776116965731,1507151082084164,9.722853,-0.16759412,-1.5777789,0.0,0.007330383,0.0012217305,TONIC,87b69e245e54
1776116965739,1507151090079555,9.701305,-0.17477672,-1.5897499,0.0,0.009773844,0.0012217305,TONIC,87b69e245e54
1776116965747,1507151098104793,9.722853,-0.16519992,-1.5729905,0.0,0.010995574,0.0030543262,TONIC,87b69e245e54
1776116965755,1507151106100416,9.720459,-0.16519992,-1.5753847,-0.0012217305,0.010995574,0.0018325958,TONIC,87b69e245e54
1776116965763,1507151114152115,9.727641,-0.16280572,-1.5610195,-0.0012217305,0.01038471,0.0030543262,TONIC,87b69e245e54
1776116965771,1507151122093660,9.720459,-0.17717093,-1.5490485,6.1086525E-4,0.007330383,0.004276057,TONIC,87b69e245e54
1776116965779,1507151130112744,9.713276,-0.17956513,-1.553837,-0.0012217305,0.004886922,0.005497787,TONIC,87b69e245e54
1776116965787,1507151138085674,9.734824,-0.18674773,-1.5586253,0.0,0.004276057,0.004276057,TONIC,87b69e245e54
1776116965795,1507151146079528,9.734824,-0.18195933,-1.5490485,-0.0012217305,0.0018325958,0.005497787,TONIC,87b69e245e54
1776116965803,1507151154074996,9.739613,-0.18914193,-1.5562311,0.0,0.0012217305,0.004276057,TONIC,87b69e245e54
1776116965811,1507151162101772,9.734824,-0.18674773,-1.5705963,-0.0012217305,-0.0030543262,0.004886922,TONIC,87b69e245e54
1776116965818,1507151169662702,9.751583,-0.20350714,-1.5586253,6.1086525E-4,-0.0036651916,0.004276057,TONIC,87b69e245e54
1776116965827,1507151178091556,9.744401,-0.20350714,-1.553837,0.002443461,-0.0018325958,0.0018325958,TONIC,87b69e245e54
1776116965835,1507151186143024,9.746795,-0.21068975,-1.553837,6.1086525E-4,-0.002443461,0.0018325958,TONIC,87b69e245e54
1776116965843,1507151194084492,9.746795,-0.21547815,-1.5586253,0.0,-0.0036651916,6.1086525E-4,TONIC,87b69e245e54
1776116965851,1507151202134345,9.749189,-0.21787235,-1.5610195,0.0012217305,-0.005497787,0.0018325958,TONIC,87b69e245e54
1776116965859,1507151210075275,9.744401,-0.21547815,-1.553837,0.002443461,-0.004886922,-0.0012217305,TONIC,87b69e245e54
1776116965867,1507151218099898,9.739613,-0.22026655,-1.5682021,0.0018325958,-0.0067195175,-0.0012217305,TONIC,87b69e245e54
1776116965875,1507151226095289,9.7324295,-0.18195933,-1.5562311,0.0012217305,-0.007941248,-0.002443461,TONIC,87b69e245e54
1776116965883,1507151234091988,9.737218,-0.20590134,-1.5610195,0.002443461,-0.010995574,-0.0030543262,TONIC,87b69e245e54
1776116965891,1507151242088226,9.739613,-0.19871874,-1.5394717,0.0018325958,-0.010995574,-0.002443461,TONIC,87b69e245e54
1776116965899,1507151250083618,9.737218,-0.21308395,-1.5658079,0.0018325958,-0.01038471,-0.004886922,TONIC,87b69e245e54
1776116965907,1507151258080856,9.739613,-0.21308395,-1.5682021,0.002443461,-0.010995574,-0.0036651916,TONIC,87b69e245e54
1776116965915,1507151266104247,9.727641,-0.19871874,-1.5753847,0.0030543262,-0.01038471,-0.005497787,TONIC,87b69e245e54
1776116965922,1507151273585562,9.742006,-0.19393034,-1.5658079,0.002443461,-0.009773844,-0.007330383,TONIC,87b69e245e54
1776116965931,1507151282097261,9.710882,-0.18674773,-1.5634137,0.002443461,-0.01038471,-0.0061086523,TONIC,87b69e245e54
1776116965939,1507151290147115,9.68694,-0.15562311,-1.5490485,0.0012217305,-0.010995574,-0.0061086523,TONIC,87b69e245e54
1776116965947,1507151298087968,9.698911,-0.16519992,-1.5586253,0.0012217305,-0.012217305,-0.0061086523,TONIC,87b69e245e54
1776116965955,1507151306082513,9.710882,-0.15562311,-1.5849615,6.1086525E-4,-0.010995574,-0.005497787,TONIC,87b69e245e54
1776116965963,1507151314080674,9.7084875,-0.1388637,-1.5825673,0.0012217305,-0.012217305,-0.004886922,TONIC,87b69e245e54
1776116965971,1507151322103989,9.706094,-0.15083471,-1.5849615,0.0012217305,-0.010995574,-0.0030543262,TONIC,87b69e245e54
1776116965979,1507151330125227,9.710882,-0.14844051,-1.5921441,6.1086525E-4,-0.01038471,-0.0018325958,TONIC,87b69e245e54
1776116965987,1507151338065926,9.718064,-0.15562311,-1.5969325,6.1086525E-4,-0.0061086523,-0.0018325958,TONIC,87b69e245e54
1776116965995,1507151346116394,9.7084875,-0.1604115,-1.5777789,-6.1086525E-4,-0.004886922,-6.1086525E-4,TONIC,87b69e245e54
1776116966003,1507151354088017,9.698911,-0.15322891,-1.5705963,-0.0018325958,-0.0067195175,-6.1086525E-4,TONIC,87b69e245e54
1776116966011,1507151362081870,9.694122,-0.16759412,-1.5658079,-0.002443461,-0.0061086523,0.0012217305,TONIC,87b69e245e54
1776116966019,1507151370103185,9.7084875,-0.16519992,-1.5945383,-0.0018325958,-0.0067195175,0.0018325958,TONIC,87b69e245e54
1776116966027,1507151378073269,9.698911,-0.15322891,-1.5897499,-0.0036651916,-0.007330383,0.0030543262,TONIC,87b69e245e54
1776116966035,1507151386124968,9.7084875,-0.14604631,-1.6017209,-0.002443461,-0.002443461,0.0036651916,TONIC,87b69e245e54
1776116966043,1507151394097898,9.713276,-0.17238252,-1.5945383,-0.0012217305,0.0,0.0036651916,TONIC,87b69e245e54
1776116966051,1507151402091136,9.696517,-0.15083471,-1.5753847,-0.0012217305,0.002443461,0.004886922,TONIC,87b69e245e54
1776116966059,1507151410111835,9.710882,-0.1604115,-1.5825673,-0.0030543262,0.004886922,0.005497787,TONIC,87b69e245e54
1776116966067,1507151418082534,9.701305,-0.16519992,-1.5777789,-0.0018325958,0.0036651916,0.004276057,TONIC,87b69e245e54
1776116966075,1507151426077002,9.725247,-0.16280572,-1.5873557,-0.0012217305,0.004886922,0.0061086523,TONIC,87b69e245e54
1776116966083,1507151434105317,9.706094,-0.17477672,-1.5801731,0.0,0.005497787,0.004886922,TONIC,87b69e245e54
1776116966091,1507151442100708,9.722853,-0.19632454,-1.5873557,-6.1086525E-4,0.0061086523,0.005497787,TONIC,87b69e245e54
1776116966099,1507151450150869,9.725247,-0.19153613,-1.5801731,-0.0012217305,0.007941248,0.004886922,TONIC,87b69e245e54
1776116966107,1507151458091876,9.734824,-0.20350714,-1.5658079,-0.0012217305,0.009773844,0.0061086523,TONIC,87b69e245e54
1776116966115,1507151466086268,9.737218,-0.20111294,-1.5849615,0.0012217305,0.010995574,0.0061086523,TONIC,87b69e245e54
1776116966123,1507151474084506,9.744401,-0.19871874,-1.5658079,0.0012217305,0.01282817,0.0030543262,TONIC,87b69e245e54
1776116966131,1507151482078667,9.715671,-0.22266077,-1.541866,0.0,0.014049901,0.004276057,TONIC,87b69e245e54
1776116966138,1507151489611904,9.742006,-0.22744916,-1.5514427,0.0,0.01160644,0.0036651916,TONIC,87b69e245e54
1776116966147,1507151498100834,9.730036,-0.21547815,-1.532289,0.0012217305,0.01038471,0.002443461,TONIC,87b69e245e54
1776116966155,1507151506095303,9.742006,-0.22984336,-1.5490485,6.1086525E-4,0.004886922,0.002443461,TONIC,87b69e245e54
1776116966163,1507151514093079,9.7324295,-0.20829555,-1.5466543,0.0,0.002443461,0.0012217305,TONIC,87b69e245e54
1776116966171,1507151522087548,9.742006,-0.20111294,-1.5610195,0.0018325958,-0.002443461,-0.0012217305,TONIC,87b69e245e54
1776116966179,1507151530082709,9.746795,-0.21787235,-1.5658079,0.0012217305,0.0,-0.002443461,TONIC,87b69e245e54
1776116966187,1507151538077408,9.725247,-0.20350714,-1.5753847,0.0018325958,0.0,-0.0036651916,TONIC,87b69e245e54
1776116966195,1507151546104800,9.730036,-0.20350714,-1.5753847,0.002443461,0.0030543262,-0.004886922,TONIC,87b69e245e54
1776116966203,1507151554098422,9.720459,-0.18914193,-1.5682021,0.0036651916,0.002443461,-0.0036651916,TONIC,87b69e245e54
1776116966211,1507151562119968,9.737218,-0.17956513,-1.5490485,0.0018325958,0.0030543262,-0.004276057,TONIC,87b69e245e54
1776116966219,1507151570061205,9.720459,-0.17956513,-1.5466543,0.004276057,0.0012217305,-0.0036651916,TONIC,87b69e245e54
1776116966227,1507151578085520,9.730036,-0.18195933,-1.541866,0.002443461,0.0018325958,-0.005497787,TONIC,87b69e245e54
1776116966235,1507151586084527,9.718064,-0.17956513,-1.532289,0.002443461,0.0018325958,-0.0030543262,TONIC,87b69e245e54
1776116966243,1507151594077226,9.751583,-0.16280572,-1.5562311,0.002443461,6.1086525E-4,-0.0030543262,TONIC,87b69e245e54
1776116966251,1507151602128541,9.730036,-0.15801731,-1.541866,0.002443461,0.0,-0.002443461,TONIC,87b69e245e54
1776116966259,1507151610154702,9.734824,-0.17477672,-1.5490485,0.002443461,0.0036651916,-0.0012217305,TONIC,87b69e245e54
1776116966267,1507151618095632,9.734824,-0.15801731,-1.5514427,0.0030543262,0.0036651916,-0.002443461,TONIC,87b69e245e54
1776116966275,1507151626091947,9.734824,-0.14844051,-1.5442601,0.0030543262,0.004276057,-0.0030543262,TONIC,87b69e245e54
1776116966283,1507151634085568,9.722853,-0.14844051,-1.5490485,6.1086525E-4,0.004276057,0.0,TONIC,87b69e245e54
1776116966291,1507151642081191,9.7084875,-0.15083471,-1.5370775,0.0018325958,0.005497787,0.002443461,TONIC,87b69e245e54
1776116966299,1507151650080044,9.722853,-0.14604631,-1.5442601,0.0018325958,0.004886922,0.0018325958,TONIC,87b69e245e54
1776116966307,1507151658102512,9.722853,-0.1364695,-1.5370775,0.002443461,0.0036651916,0.0018325958,TONIC,87b69e245e54
1776116966315,1507151666098519,9.7324295,-0.14604631,-1.5370775,0.002443461,0.004886922,0.0036651916,TONIC,87b69e245e54
1776116966323,1507151674093911,9.746795,-0.17477672,-1.5370775,0.002443461,0.0018325958,0.004276057,TONIC,87b69e245e54
1776116966331,1507151682091380,9.744401,-0.16519992,-1.5370775,0.0018325958,6.1086525E-4,0.004886922,TONIC,87b69e245e54
1776116966338,1507151689596310,9.734824,-0.17238252,-1.5394717,0.002443461,-6.1086525E-4,0.0067195175,TONIC,87b69e245e54
1776116966346,1507151697556086,9.727641,-0.18435353,-1.5275006,-6.1086525E-4,-0.0061086523,0.0067195175,TONIC,87b69e245e54
1776116966355,1507151706101939,9.7563715,-0.16759412,-1.5346833,6.1086525E-4,-0.009162978,0.007330383,TONIC,87b69e245e54
1776116966363,1507151714072100,9.744401,-0.18195933,-1.541866,6.1086525E-4,-0.010995574,0.007941248,TONIC,87b69e245e54
1776116966371,1507151722101030,9.730036,-0.18674773,-1.5370775,-0.0012217305,-0.01160644,0.007941248,TONIC,87b69e245e54
1776116966379,1507151730149883,9.720459,-0.21547815,-1.5610195,-6.1086525E-4,-0.01160644,0.009162978,TONIC,87b69e245e54
1776116966387,1507151738090275,9.713276,-0.21787235,-1.5442601,-0.0012217305,-0.015271631,0.007330383,TONIC,87b69e245e54
1776116966395,1507151746085282,9.698911,-0.19871874,-1.5562311,-0.0018325958,-0.017715093,0.005497787,TONIC,87b69e245e54
1776116966403,1507151754136750,9.679757,-0.18435353,-1.5634137,-0.0012217305,-0.020158553,0.004886922,TONIC,87b69e245e54
1776116966411,1507151762076450,9.6845455,-0.17956513,-1.5825673,0.0018325958,-0.021991149,0.0030543262,TONIC,87b69e245e54
1776116966419,1507151770104380,9.715671,-0.18914193,-1.5921441,-0.0012217305,-0.023823744,0.004276057,TONIC,87b69e245e54
1776116966427,1507151778098002,9.706094,-0.19632454,-1.6112977,0.0,-0.017715093,0.005497787,TONIC,87b69e245e54
1776116966435,1507151786119163,9.742006,-0.19632454,-1.6160861,0.0,-0.007330383,0.004886922,TONIC,87b69e245e54
1776116966443,1507151794089632,9.744401,-0.15083471,-1.6017209,0.004276057,0.0061086523,0.005497787,TONIC,87b69e245e54
1776116966451,1507151802085946,9.753978,-0.16519992,-1.6041151,0.0012217305,0.016493361,0.005497787,TONIC,87b69e245e54
1776116966459,1507151810082569,9.749189,-0.17956513,-1.5801731,0.0,0.02687807,0.007941248,TONIC,87b69e245e54
1776116966467,1507151818077653,9.7324295,-0.18435353,-1.5682021,-6.1086525E-4,0.037873644,0.010995574,TONIC,87b69e245e54
1776116966475,1507151826102044,9.7324295,-0.18674773,-1.5610195,-6.1086525E-4,0.04153884,0.010995574,TONIC,87b69e245e54
1776116966483,1507151834098590,9.730036,-0.21308395,-1.5586253,-0.0012217305,0.045814894,0.012217305,TONIC,87b69e245e54
1776116966491,1507151842093751,9.701305,-0.21787235,-1.5729905,0.0,0.044593163,0.013439035,TONIC,87b69e245e54
1776116966499,1507151850090373,9.715671,-0.23463176,-1.5777789,-0.0030543262,0.044593163,0.01282817,TONIC,87b69e245e54
1776116966507,1507151858086303,9.691729,-0.23702596,-1.5753847,-0.002443461,0.04153884,0.010995574,TONIC,87b69e245e54
1776116966515,1507151866083002,9.691729,-0.22026655,-1.5729905,-0.002443461,0.044593163,0.01038471,TONIC,87b69e245e54
1776116966523,1507151874077470,9.694122,-0.20111294,-1.553837,-0.0018325958,0.04153884,0.007941248,TONIC,87b69e245e54
1776116966531,1507151882158092,9.674969,-0.19632454,-1.5442601,0.0,0.04337143,0.004886922,TONIC,87b69e245e54
1776116966539,1507151890100484,9.701305,-0.18195933,-1.5586253,-6.1086525E-4,0.043982297,0.0036651916,TONIC,87b69e245e54
1776116966547,1507151898095953,9.718064,-0.16998832,-1.532289,0.0018325958,0.05009095,0.002443461,TONIC,87b69e245e54
1776116966554,1507151905577729,9.751583,-0.15562311,-1.5251064,0.0018325958,0.05009095,0.002443461,TONIC,87b69e245e54
1776116966563,1507151914085813,9.753978,-0.1436521,-1.5298948,0.005497787,0.070249505,0.005497787,TONIC,87b69e245e54
1776116966571,1507151922080204,9.785102,-0.1436521,-1.5155296,0.005497787,0.084910266,0.007330383,TONIC,87b69e245e54
1776116966579,1507151930107673,9.8042555,-0.1604115,-1.5275006,0.007330383,0.09773844,0.009773844,TONIC,87b69e245e54
1776116966587,1507151938103372,9.792285,-0.16998832,-1.508347,0.005497787,0.11056661,0.01282817,TONIC,87b69e245e54
1776116966595,1507151946100226,9.77792,-0.18674773,-1.5011644,0.004886922,0.11789699,0.015271631,TONIC,87b69e245e54
1776116966603,1507151954093233,9.765948,-0.20111294,-1.472434,0.002443461,0.118507855,0.017104227,TONIC,87b69e245e54
1776116966611,1507151962144624,9.753978,-0.22984336,-1.4269443,0.0012217305,0.11789699,0.017715093,TONIC,87b69e245e54
1776116966619,1507151970086093,9.730036,-0.24660277,-1.3934253,0.0012217305,0.10445796,0.016493361,TONIC,87b69e245e54
1776116966627,1507151978079638,9.689334,-0.24899697,-1.4030021,0.0,0.08979719,0.01282817,TONIC,87b69e245e54
1776116966635,1507151986078184,9.674969,-0.2633622,-1.3958195,0.0,0.07269296,0.01038471,TONIC,87b69e245e54
1776116966643,1507151994073268,9.674969,-0.2681506,-1.3934253,0.0,0.05009095,0.008552114,TONIC,87b69e245e54
1776116966651,1507152002098505,9.674969,-0.2777274,-1.4197617,0.0012217305,0.029932396,0.005497787,TONIC,87b69e245e54
1776116966659,1507152010118436,9.718064,-0.2681506,-1.4532804,0.0018325958,0.02076942,0.002443461,TONIC,87b69e245e54
1776116966667,1507152018059135,9.734824,-0.2705448,-1.448492,0.002443461,0.018325957,-6.1086525E-4,TONIC,87b69e245e54
1776116966675,1507152026076988,9.749189,-0.25617957,-1.4413095,0.002443461,0.018936822,-0.0018325958,TONIC,87b69e245e54
1776116966683,1507152034081841,9.742006,-0.260968,-1.4269443,0.004276057,0.022602014,-0.0036651916,TONIC,87b69e245e54
1776116966691,1507152042107694,9.765948,-0.25857377,-1.412579,0.0030543262,0.025045475,-0.0036651916,TONIC,87b69e245e54
1776116966699,1507152050102855,9.76116,-0.24181437,-1.4053963,0.0036651916,0.02565634,-0.0036651916,TONIC,87b69e245e54
1776116966707,1507152058096401,9.768343,-0.25378537,-1.4077905,-6.1086525E-4,0.02443461,-0.0030543262,TONIC,87b69e245e54
1776116966715,1507152066094562,9.758766,-0.24181437,-1.3958195,0.0,0.018936822,-0.0018325958,TONIC,87b69e245e54
1776116966723,1507152074088646,9.763555,-0.25378537,-1.4221559,-0.0012217305,0.014049901,-0.0030543262,TONIC,87b69e245e54
1776116966731,1507152082086576,9.758766,-0.25617957,-1.4173675,-0.0030543262,0.009162978,-0.004276057,TONIC,87b69e245e54
1776116966739,1507152090081582,9.739613,-0.25617957,-1.4053963,-0.004886922,0.0036651916,-0.004886922,TONIC,87b69e245e54
1776116966747,1507152098107127,9.722853,-0.25617957,-1.4293385,-0.0030543262,-0.002443461,-0.007941248,TONIC,87b69e245e54
1776116966755,1507152106101288,9.698911,-0.21787235,-1.4317327,-0.0018325958,-0.009773844,-0.009773844,TONIC,87b69e245e54
1776116966763,1507152114097372,9.710882,-0.22984336,-1.4173675,-0.002443461,-0.013439035,-0.009773844,TONIC,87b69e245e54
1776116966771,1507152122092456,9.713276,-0.21787235,-1.42455,-0.0012217305,-0.016493361,-0.012217305,TONIC,87b69e245e54
1776116966779,1507152130091155,9.720459,-0.19632454,-1.4269443,0.0,-0.018936822,-0.01282817,TONIC,87b69e245e54
1776116966787,1507152138085624,9.7324295,-0.19393034,-1.4341269,0.0018325958,-0.019547688,-0.013439035,TONIC,87b69e245e54
1776116966795,1507152146081323,9.722853,-0.19153613,-1.4293385,0.0018325958,-0.017715093,-0.015271631,TONIC,87b69e245e54
1776116966803,1507152154105638,9.7324295,-0.18435353,-1.4341269,0.0030543262,-0.017715093,-0.016493361,TONIC,87b69e245e54
1776116966811,1507152162101645,9.722853,-0.1604115,-1.4173675,0.0030543262,-0.013439035,-0.014660766,TONIC,87b69e245e54
1776116966819,1507152170098652,9.727641,-0.17238252,-1.4460979,0.0030543262,-0.013439035,-0.014660766,TONIC,87b69e245e54
1776116966827,1507152178092428,9.737218,-0.1604115,-1.4413095,0.0030543262,-0.008552114,-0.01282817,TONIC,87b69e245e54
1776116966835,1507152186089051,9.751583,-0.17477672,-1.4460979,0.0030543262,-0.008552114,-0.01038471,TONIC,87b69e245e54
1776116966843,1507152194086596,9.727641,-0.17238252,-1.42455,0.0036651916,-0.008552114,-0.010995574,TONIC,87b69e245e54
1776116966851,1507152202081141,9.715671,-0.18195933,-1.4221559,0.002443461,-0.009773844,-0.010995574,TONIC,87b69e245e54
1776116966859,1507152210106995,9.76116,-0.17956513,-1.42455,0.002443461,-0.009773844,-0.010995574,TONIC,87b69e245e54
1776116966867,1507152218156848,9.744401,-0.16759412,-1.4053963,0.0018325958,-0.012217305,-0.007941248,TONIC,87b69e245e54
1776116966875,1507152226067932,9.742006,-0.16759412,-1.4030021,0.002443461,-0.015271631,-0.009162978,TONIC,87b69e245e54
1776116966883,1507152234026093,9.753978,-0.15322891,-1.4101849,0.0018325958,-0.017715093,-0.008552114,TONIC,87b69e245e54
1776116966891,1507152242088177,9.76116,-0.1604115,-1.4053963,0.0012217305,-0.02321288,-0.005497787,TONIC,87b69e245e54
1776116966899,1507152250200491,9.7563715,-0.18435353,-1.4197617,0.0012217305,-0.02321288,-0.004276057,TONIC,87b69e245e54
1776116966907,1507152258110960,9.753978,-0.16998832,-1.4197617,-6.1086525E-4,-0.02565634,-0.004886922,TONIC,87b69e245e54
1776116966914,1507152265753504,9.758766,-0.18195933,-1.4197617,-0.0012217305,-0.02687807,-0.004886922,TONIC,87b69e245e54
1776116966923,1507152274102743,9.746795,-0.17956513,-1.4197617,0.0,-0.028710667,-0.004276057,TONIC,87b69e245e54
1776116966931,1507152282121827,9.742006,-0.20590134,-1.4173675,-0.0018325958,-0.03176499,-0.0036651916,TONIC,87b69e245e54
1776116966939,1507152290094065,9.727641,-0.19632454,-1.4317327,-0.0036651916,-0.034208454,-0.004886922,TONIC,87b69e245e54
1776116966947,1507152298087995,9.734824,-0.18435353,-1.436521,-0.0030543262,-0.040317107,-0.002443461,TONIC,87b69e245e54
1776116966955,1507152306083387,9.720459,-0.17956513,-1.4556746,-0.005497787,-0.040317107,-0.0030543262,TONIC,87b69e245e54
1776116966963,1507152314078700,9.734824,-0.15801731,-1.472434,-0.0030543262,-0.040927973,-0.004276057,TONIC,87b69e245e54
1776116966971,1507152322105246,9.739613,-0.15322891,-1.4891934,-0.0030543262,-0.034208454,-0.0061086523,TONIC,87b69e245e54
1776116966979,1507152330102099,9.715671,-0.1340753,-1.5179238,-6.1086525E-4,-0.021991149,-0.0030543262,TONIC,87b69e245e54
1776116966987,1507152338096567,9.758766,-0.11731588,-1.5275006,0.0012217305,-0.0030543262,-0.0030543262,TONIC,87b69e245e54
1776116966995,1507152346093498,9.785102,-0.12928689,-1.5298948,0.0030543262,0.014660766,-6.1086525E-4,TONIC,87b69e245e54
1776116967003,1507152354086812,9.80665,-0.15083471,-1.508347,0.004276057,0.032986723,-6.1086525E-4,TONIC,87b69e245e54
1776116967011,1507152362082819,9.787497,-0.19153613,-1.4987702,0.004276057,0.05131268,0.0030543262,TONIC,87b69e245e54
1776116967019,1507152370080365,9.773131,-0.20350714,-1.4628572,0.0036651916,0.057421334,0.0030543262,TONIC,87b69e245e54
1776116967027,1507152378105603,9.7563715,-0.22505496,-1.42455,0.002443461,0.051923547,0.002443461,TONIC,87b69e245e54
1776116967035,1507152386100379,9.737218,-0.20350714,-1.4030021,0.0018325958,0.0421497,0.0,TONIC,87b69e245e54
1776116967043,1507152394096617,9.696517,-0.19153613,-1.3958195,6.1086525E-4,0.02687807,0.0,TONIC,87b69e245e54
1776116967051,1507152402091393,9.696517,-0.15562311,-1.3982137,-6.1086525E-4,0.014049901,-6.1086525E-4,TONIC,87b69e245e54
1776116967059,1507152410112708,9.679757,-0.15562311,-1.4197617,6.1086525E-4,0.007330383,-0.0018325958,TONIC,87b69e245e54
1776116967067,1507152418085638,9.701305,-0.17238252,-1.42455,-0.0012217305,0.004886922,0.0,TONIC,87b69e245e54
1776116967075,1507152426079799,9.715671,-0.20590134,-1.4293385,0.0012217305,0.007941248,0.0012217305,TONIC,87b69e245e54
1776116967083,1507152434107498,9.742006,-0.22505496,-1.4437037,0.0030543262,0.012217305,0.0030543262,TONIC,87b69e245e54
1776116967091,1507152442102197,9.7563715,-0.22984336,-1.4221559,0.0030543262,0.018325957,0.0012217305,TONIC,87b69e245e54
1776116967099,1507152450096973,9.7803135,-0.24899697,-1.4437037,0.0,0.023823744,0.0,TONIC,87b69e245e54
1776116967106,1507152457743134,9.7563715,-0.24660277,-1.4269443,-0.0012217305,0.023823744,-0.0012217305,TONIC,87b69e245e54
1776116967115,1507152466088987,9.782708,-0.22744916,-1.4221559,-6.1086525E-4,0.02565634,-0.004276057,TONIC,87b69e245e54
1776116967123,1507152474084148,9.765948,-0.22984336,-1.4221559,-0.0036651916,0.021991149,-0.0030543262,TONIC,87b69e245e54
1776116967131,1507152482081078,9.770737,-0.19871874,-1.4437037,-0.0061086523,0.025045475,-0.0036651916,TONIC,87b69e245e54
1776116967139,1507152490105624,9.7803135,-0.17956513,-1.4532804,-0.004886922,0.03359759,-0.0036651916,TONIC,87b69e245e54
1776116967147,1507152498100169,9.792285,-0.19153613,-1.4221559,-0.005497787,0.04153884,-0.0036651916,TONIC,87b69e245e54
1776116967155,1507152506095253,9.77792,-0.20111294,-1.4197617,-0.0061086523,0.050701816,-0.002443461,TONIC,87b69e245e54
1776116967163,1507152514092414,9.77792,-0.19393034,-1.3910311,-0.005497787,0.06291912,-0.0030543262,TONIC,87b69e245e54
1776116967171,1507152522087883,9.765948,-0.20111294,-1.3599066,-0.004886922,0.065973446,-0.0030543262,TONIC,87b69e245e54
1776116967179,1507152530082890,9.76116,-0.19153613,-1.3335704,-0.0061086523,0.06352998,-0.0018325958,TONIC,87b69e245e54
1776116967187,1507152538078280,9.785102,-0.22505496,-1.3359646,-0.0067195175,0.06169739,-0.0018325958,TONIC,87b69e245e54
1776116967195,1507152546105980,9.763555,-0.21308395,-1.3479356,-0.008552114,0.05497787,-0.002443461,TONIC,87b69e245e54
1776116967203,1507152554102602,9.770737,-0.19871874,-1.3599066,-0.008552114,0.049480084,-0.0030543262,TONIC,87b69e245e54
1776116967211,1507152562097378,9.742006,-0.19871874,-1.3263878,-0.010995574,0.04153884,-0.0036651916,TONIC,87b69e245e54
1776116967219,1507152570092847,9.763555,-0.18195933,-1.352724,-0.01038471,0.03604105,-0.002443461,TONIC,87b69e245e54
1776116967227,1507152578086623,9.811439,-0.18674773,-1.3670892,-0.009773844,0.03176499,-0.004886922,TONIC,87b69e245e54
1776116967235,1507152586084476,9.68694,-0.16998832,-1.352724,-0.010995574,0.029321533,-0.0067195175,TONIC,87b69e245e54
1776116967243,1507152594077483,9.667787,-0.22505496,-1.3838485,-0.009773844,0.025045475,-0.0030543262,TONIC,87b69e245e54
1776116967251,1507152602105490,9.773131,-0.24660277,-1.3718776,-0.014049901,0.017104227,0.0061086523,TONIC,87b69e245e54
1776116967259,1507152610099882,9.710882,-0.34715924,-1.3575124,-0.020158553,0.004886922,0.009773844,TONIC,87b69e245e54
1776116967267,1507152618096581,9.91439,-0.1436521,-1.2976574,-0.02443461,-0.01038471,0.023823744,TONIC,87b69e245e54
1776116967275,1507152626091358,9.859323,0.035913024,-1.2569559,-0.020158553,-0.0067195175,0.0061086523,TONIC,87b69e245e54
1776116967283,1507152634087288,9.622296,-0.074220255,-1.328782,-0.01038471,0.002443461,-0.004886922,TONIC,87b69e245e54
1776116967291,1507152642082372,9.746795,-0.14604631,-1.3359646,-0.0061086523,0.0030543262,0.005497787,TONIC,87b69e245e54
1776116967299,1507152650079609,9.773131,-0.17238252,-1.3120226,-0.007941248,-0.0061086523,0.009162978,TONIC,87b69e245e54
1776116967307,1507152658105232,9.696517,-0.11731588,-1.3431472,-0.007941248,-0.022602014,0.002443461,TONIC,87b69e245e54
1776116967315,1507152666099085,9.67018,-0.10055647,-1.3383588,-0.007330383,-0.029321533,0.004886922,TONIC,87b69e245e54
1776116967323,1507152674095938,9.674969,-0.10534488,-1.3551182,-0.005497787,-0.03604105,0.0067195175,TONIC,87b69e245e54
1776116967331,1507152682090484,9.698911,-0.08140286,-1.3455414,-0.0030543262,-0.03848451,0.009773844,TONIC,87b69e245e54
1776116967339,1507152690086491,9.715671,-0.12689269,-1.364695,-6.1086525E-4,-0.039095376,0.009162978,TONIC,87b69e245e54
1776116967347,1507152698081575,9.720459,-0.1436521,-1.3551182,6.1086525E-4,-0.037873644,0.01160644,TONIC,87b69e245e54
1776116967355,1507152706079120,9.749189,-0.18674773,-1.3455414,0.002443461,-0.04153884,0.01160644,TONIC,87b69e245e54
1776116967363,1507152714103358,9.797073,-0.21308395,-1.3479356,0.002443461,-0.042760566,0.012217305,TONIC,87b69e245e54
1776116967371,1507152722100365,9.770737,-0.22026655,-1.3383588,0.002443461,-0.050701816,0.012217305,TONIC,87b69e245e54
1776116967379,1507152730097833,9.763555,-0.24181437,-1.3311762,0.002443461,-0.059864793,0.007941248,TONIC,87b69e245e54
1776116967387,1507152738090764,9.773131,-0.25857377,-1.3670892,0.002443461,-0.069027774,0.004276057,TONIC,87b69e245e54
1776116967395,1507152746088078,9.7803135,-0.2681506,-1.3838485,0.002443461,-0.07880162,0.004886922,TONIC,87b69e245e54
1776116967403,1507152754081624,9.758766,-0.2705448,-1.3982137,6.1086525E-4,-0.08307768,0.0036651916,TONIC,87b69e245e54
1776116967411,1507152762077630,9.787497,-0.25617957,-1.4221559,0.0012217305,-0.086132,0.0,TONIC,87b69e245e54
1776116967419,1507152770104945,9.773131,-0.24899697,-1.448492,0.002443461,-0.084910266,-0.002443461,TONIC,87b69e245e54
1776116967427,1507152778098567,9.775525,-0.25857377,-1.4580688,0.002443461,-0.08307768,-0.0061086523,TONIC,87b69e245e54
1776116967435,1507152786095805,9.751583,-0.24660277,-1.4748282,0.002443461,-0.07941248,-0.007330383,TONIC,87b69e245e54
1776116967443,1507152794090196,9.734824,-0.22744916,-1.4867992,0.0036651916,-0.07452556,-0.008552114,TONIC,87b69e245e54
1776116967451,1507152802087126,9.734824,-0.19871874,-1.4820108,0.0018325958,-0.06780604,-0.009162978,TONIC,87b69e245e54
1776116967459,1507152810084364,9.751583,-0.22266077,-1.5131354,0.0036651916,-0.06291912,-0.01038471,TONIC,87b69e245e54
1776116967467,1507152818108371,9.730036,-0.20829555,-1.5059528,0.004276057,-0.0580322,-0.012217305,TONIC,87b69e245e54
1776116967475,1507152826104378,9.7324295,-0.21547815,-1.5107412,0.004276057,-0.051923547,-0.012217305,TONIC,87b69e245e54
1776116967483,1507152834100693,9.746795,-0.22505496,-1.5298948,0.0036651916,-0.043982297,-0.01282817,TONIC,87b69e245e54
1776116967491,1507152842094008,9.749189,-0.22744916,-1.5011644,0.002443461,-0.031154128,-0.012217305,TONIC,87b69e245e54
1776116967499,1507152850091245,9.7563715,-0.19871874,-1.5275006,0.002443461,-0.023823744,-0.014660766,TONIC,87b69e245e54
1776116967507,1507152858085406,9.763555,-0.19393034,-1.5179238,0.002443461,-0.015271631,-0.013439035,TONIC,87b69e245e54
1776116967515,1507152866081413,9.775525,-0.16998832,-1.4772224,0.0018325958,-0.009162978,-0.01282817,TONIC,87b69e245e54
1776116967523,1507152874076728,9.775525,-0.16998832,-1.4867992,0.0012217305,-0.002443461,-0.01160644,TONIC,87b69e245e54
1776116967531,1507152882105658,9.768343,-0.1412579,-1.4676456,6.1086525E-4,0.0036651916,-0.010995574,TONIC,87b69e245e54
1776116967539,1507152890101665,9.751583,-0.12210429,-1.4628572,-6.1086525E-4,0.0067195175,-0.009773844,TONIC,87b69e245e54
1776116967547,1507152898096211,9.746795,-0.10295067,-1.4341269,-0.002443461,0.009773844,-0.007941248,TONIC,87b69e245e54
1776116967555,1507152906091295,9.722853,-0.090979666,-1.4460979,-0.0012217305,0.009162978,-0.005497787,TONIC,87b69e245e54
1776116967563,1507152914086302,9.694122,-0.095768064,-1.4508862,-0.0030543262,0.009773844,-0.0012217305,TONIC,87b69e245e54
1776116967571,1507152922082078,9.6845455,-0.08619126,-1.4413095,-0.004886922,0.008552114,6.1086525E-4,TONIC,87b69e245e54
1776116967579,1507152930110008,9.682152,-0.09816227,-1.4413095,-0.004276057,0.004886922,0.002443461,TONIC,87b69e245e54
1776116967587,1507152938103246,9.706094,-0.11492168,-1.448492,-0.0061086523,6.1086525E-4,0.004276057,TONIC,87b69e245e54
1776116967595,1507152946098330,9.679757,-0.1436521,-1.4460979,-0.005497787,-0.002443461,0.007330383,TONIC,87b69e245e54
1776116967603,1507152954095029,9.706094,-0.15322891,-1.472434,-0.005497787,-0.0061086523,0.012217305,TONIC,87b69e245e54
1776116967611,1507152962090036,9.701305,-0.18674773,-1.4508862,-0.0067195175,-0.009162978,0.010995574,TONIC,87b69e245e54
1776116967619,1507152970086658,9.706094,-0.19153613,-1.4437037,-0.007941248,-0.01160644,0.014049901,TONIC,87b69e245e54
1776116967627,1507152978080819,9.720459,-0.19871874,-1.448492,-0.007941248,-0.017104227,0.01282817,TONIC,87b69e245e54
1776116967635,1507152986078056,9.706094,-0.19632454,-1.4508862,-0.009773844,-0.02443461,0.012217305,TONIC,87b69e245e54
1776116967643,1507152994103294,9.698911,-0.20111294,-1.4580688,-0.009773844,-0.027488936,0.012217305,TONIC,87b69e245e54
1776116967651,1507153002098455,9.739613,-0.20111294,-1.472434,-0.009162978,-0.031154128,0.01282817,TONIC,87b69e245e54
1776116967659,1507153010095693,9.763555,-0.19153613,-1.4939818,-0.009162978,-0.032986723,0.013439035,TONIC,87b69e245e54
1776116967667,1507153018091315,9.76116,-0.20350714,-1.5035586,-0.009773844,-0.029932396,0.012217305,TONIC,87b69e245e54
1776116967675,1507153026085245,9.773131,-0.19871874,-1.496376,-0.007941248,-0.022602014,0.009162978,TONIC,87b69e245e54
1776116967683,1507153034080329,9.751583,-0.18195933,-1.5107412,-0.005497787,-0.015271631,0.009773844,TONIC,87b69e245e54
1776116967691,1507153042106490,9.749189,-0.17477672,-1.5011644,-0.004886922,-0.01282817,0.007330383,TONIC,87b69e245e54
1776116967699,1507153050103958,9.722853,-0.17477672,-1.4939818,-0.004886922,-0.007330383,0.007330383,TONIC,87b69e245e54
1776116967707,1507153058100965,9.730036,-0.18914193,-1.4987702,-0.0030543262,-0.0067195175,0.005497787,TONIC,87b69e245e54
1776116967715,1507153066095126,9.722853,-0.21068975,-1.4772224,-0.002443461,-0.0030543262,0.0061086523,TONIC,87b69e245e54
1776116967723,1507153074089287,9.727641,-0.21547815,-1.5011644,-0.0018325958,0.0012217305,0.005497787,TONIC,87b69e245e54
1776116967731,1507153082085910,9.725247,-0.23702596,-1.4915876,0.0,0.005497787,0.005497787,TONIC,87b69e245e54
1776116967739,1507153090083070,9.737218,-0.22505496,-1.496376,0.0,0.0061086523,0.004886922,TONIC,87b69e245e54
1776116967747,1507153098108308,9.753978,-0.2633622,-1.484405,0.0012217305,0.01160644,0.0012217305,TONIC,87b69e245e54
1776116967755,1507153106102469,9.768343,-0.25378537,-1.4891934,0.0030543262,0.010995574,-6.1086525E-4,TONIC,87b69e245e54
1776116967763,1507153114097553,9.749189,-0.2777274,-1.4700398,0.0030543262,0.014660766,-0.0012217305,TONIC,87b69e245e54
1776116967771,1507153122093637,9.739613,-0.272939,-1.4820108,0.0018325958,0.015882496,-0.0030543262,TONIC,87b69e245e54
1776116967779,1507153130089259,9.765948,-0.28491,-1.4628572,6.1086525E-4,0.016493361,-0.007330383,TONIC,87b69e245e54
1776116967787,1507153138084651,9.749189,-0.2705448,-1.4628572,0.0012217305,0.014049901,-0.010995574,TONIC,87b69e245e54
1776116967795,1507153146081350,9.744401,-0.25139117,-1.4867992,0.0,0.01282817,-0.014049901,TONIC,87b69e245e54
1776116967803,1507153154075511,9.751583,-0.24181437,-1.496376,0.0012217305,0.01160644,-0.014049901,TONIC,87b69e245e54
1776116967811,1507153162101980,9.76116,-0.22266077,-1.4891934,6.1086525E-4,0.01160644,-0.017104227,TONIC,87b69e245e54
1776116967819,1507153170098833,9.746795,-0.19153613,-1.5035586,0.0,0.015271631,-0.016493361,TONIC,87b69e245e54
1776116967827,1507153178093301,9.739613,-0.15322891,-1.4915876,-0.0018325958,0.018936822,-0.015882496,TONIC,87b69e245e54
1776116967835,1507153186090232,9.725247,-0.1364695,-1.496376,-0.0012217305,0.02076942,-0.016493361,TONIC,87b69e245e54
1776116967843,1507153194085316,9.701305,-0.1340753,-1.4867992,-0.0012217305,0.02321288,-0.013439035,TONIC,87b69e245e54
1776116967851,1507153202081399,9.703699,-0.090979666,-1.4772224,-6.1086525E-4,0.02687807,-0.014049901,TONIC,87b69e245e54
1776116967859,1507153210109099,9.68694,-0.08140286,-1.4556746,-0.0018325958,0.026267206,-0.009162978,TONIC,87b69e245e54
1776116967867,1507153218103259,9.694122,-0.11252748,-1.4532804,-0.002443461,0.02443461,-0.0061086523,TONIC,87b69e245e54
1776116967875,1507153226097958,9.696517,-0.11492168,-1.460463,-0.0030543262,0.029932396,-0.0036651916,TONIC,87b69e245e54
1776116967883,1507153234094657,9.7084875,-0.1388637,-1.4676456,-0.0036651916,0.027488936,-0.0012217305,TONIC,87b69e245e54
1776116967891,1507153242088741,9.715671,-0.15562311,-1.448492,-0.004276057,0.029932396,0.0018325958,TONIC,87b69e245e54
1776116967899,1507153250085748,9.713276,-0.1340753,-1.4341269,-0.005497787,0.029932396,0.0018325958,TONIC,87b69e245e54
1776116967907,1507153258079909,9.727641,-0.1364695,-1.4413095,-0.005497787,0.028099801,0.004276057,TONIC,87b69e245e54
1776116967915,1507153266105993,9.739613,-0.16998832,-1.4341269,-0.004886922,0.027488936,0.007941248,TONIC,87b69e245e54
1776116967923,1507153274102077,9.753978,-0.16759412,-1.4197617,-0.0061086523,0.02687807,0.007941248,TONIC,87b69e245e54
1776116967931,1507153282098392,9.758766,-0.16759412,-1.4341269,-0.0067195175,0.02565634,0.007941248,TONIC,87b69e245e54
1776116967939,1507153290095937,9.7563715,-0.1604115,-1.4030021,-0.0061086523,0.02443461,0.009162978,TONIC,87b69e245e54
1776116967947,1507153298089098,9.742006,-0.18674773,-1.4030021,-0.0061086523,0.023823744,0.009162978,TONIC,87b69e245e54
1776116967955,1507153306086028,9.753978,-0.16759412,-1.3910311,-0.007330383,0.022602014,0.009162978,TONIC,87b69e245e54
1776116967963,1507153314079266,9.746795,-0.1604115,-1.3982137,-0.0067195175,0.018325957,0.008552114,TONIC,87b69e245e54
1776116967971,1507153322107658,9.751583,-0.16519992,-1.3862427,-0.007941248,0.015882496,0.01038471,TONIC,87b69e245e54
1776116967979,1507153330102972,9.751583,-0.18195933,-1.4221559,-0.007330383,0.014049901,0.01160644,TONIC,87b69e245e54
1776116967987,1507153338097441,9.758766,-0.21068975,-1.412579,-0.007330383,0.013439035,0.01160644,TONIC,87b69e245e54
1776116967995,1507153346092217,9.770737,-0.22266077,-1.388637,-0.0067195175,0.010995574,0.010995574,TONIC,87b69e245e54
1776116968003,1507153354089532,9.742006,-0.22744916,-1.4030021,-0.0067195175,0.009162978,0.012217305,TONIC,87b69e245e54
1776116968011,1507153362084231,9.773131,-0.22984336,-1.3934253,-0.0067195175,0.007330383,0.009162978,TONIC,87b69e245e54
1776116968019,1507153370082084,9.8042555,-0.24899697,-1.376666,-0.0067195175,0.004276057,0.007330383,TONIC,87b69e245e54
1776116968027,1507153378107014,9.801862,-0.23463176,-1.3694834,-0.0067195175,0.0012217305,0.005497787,TONIC,87b69e245e54
1776116968035,1507153386100945,9.797073,-0.24181437,-1.3934253,-0.004886922,-0.002443461,0.005497787,TONIC,87b69e245e54
1776116968043,1507153394096952,9.792285,-0.23942018,-1.400608,-0.005497787,0.0,0.0018325958,TONIC,87b69e245e54
1776116968051,1507153402093805,9.80665,-0.21547815,-1.3910311,-0.0036651916,-0.0030543262,0.0,TONIC,87b69e245e54
1776116968059,1507153410088966,9.770737,-0.20829555,-1.4053963,-0.0036651916,-0.0036651916,-0.0018325958,TONIC,87b69e245e54
1776116968067,1507153418084973,9.763555,-0.18914193,-1.4077905,-0.0036651916,-0.004276057,-0.0030543262,TONIC,87b69e245e54
1776116968075,1507153426080980,9.751583,-0.19393034,-1.412579,-0.002443461,-0.005497787,-0.0036651916,TONIC,87b69e245e54
1776116968083,1507153434105833,9.76116,-0.16759412,-1.412579,-0.0012217305,-0.0036651916,-0.004886922,TONIC,87b69e245e54
1776116968091,1507153442102839,9.737218,-0.17477672,-1.4293385,-6.1086525E-4,-0.0030543262,-0.0030543262,TONIC,87b69e245e54
1776116968099,1507153450099077,9.715671,-0.18674773,-1.4389153,-0.002443461,-0.0012217305,-0.002443461,TONIC,87b69e245e54
1776116968107,1507153458092930,9.713276,-0.20350714,-1.412579,-0.0012217305,-6.1086525E-4,-0.002443461,TONIC,87b69e245e54
1776116968115,1507153466087783,9.7084875,-0.18195933,-1.412579,-0.0018325958,-6.1086525E-4,-0.0036651916,TONIC,87b69e245e54
1776116968123,1507153474084405,9.725247,-0.1604115,-1.4341269,-0.0018325958,-0.0036651916,-0.0036651916,TONIC,87b69e245e54
1776116968131,1507153482080105,9.734824,-0.18674773,-1.4317327,-0.0012217305,0.0,-0.0030543262,TONIC,87b69e245e54
1776116968139,1507153490107189,9.751583,-0.20111294,-1.4317327,-0.0012217305,0.0,-0.0012217305,TONIC,87b69e245e54
1776116968147,1507153498101273,9.763555,-0.18195933,-1.4460979,-0.0036651916,0.0036651916,-0.0018325958,TONIC,87b69e245e54
1776116968155,1507153506096972,9.765948,-0.17238252,-1.4149733,-0.002443461,0.007941248,-0.002443461,TONIC,87b69e245e54
1776116968163,1507153514093671,9.742006,-0.16280572,-1.3958195,-0.0018325958,0.008552114,-0.004276057,TONIC,87b69e245e54
1776116968171,1507153522089678,9.7324295,-0.15801731,-1.400608,-0.002443461,0.007330383,-0.002443461,TONIC,87b69e245e54
1776116968179,1507153530084685,9.730036,-0.14844051,-1.3958195,-0.002443461,0.0036651916,-0.0030543262,TONIC,87b69e245e54
1776116968187,1507153538079846,9.720459,-0.16519992,-1.4053963,-0.0030543262,0.004276057,-0.0018325958,TONIC,87b69e245e54
1776116968195,1507153546105084,9.734824,-0.1412579,-1.4173675,-0.0018325958,0.0018325958,-0.0012217305,TONIC,87b69e245e54
1776116968203,1507153554102552,9.742006,-0.14604631,-1.448492,-0.0030543262,0.0030543262,0.0,TONIC,87b69e245e54
1776116968211,1507153562096175,9.737218,-0.17717093,-1.4341269,-0.002443461,0.004276057,0.0036651916,TONIC,87b69e245e54
1776116968219,1507153570093105,9.727641,-0.21068975,-1.4317327,-0.002443461,0.009162978,0.004276057,TONIC,87b69e245e54
1776116968227,1507153578087497,9.725247,-0.19871874,-1.42455,-0.0036651916,0.010995574,0.0030543262,TONIC,87b69e245e54
1776116968235,1507153586083888,9.734824,-0.19871874,-1.412579,-0.004276057,0.007941248,0.002443461,TONIC,87b69e245e54
1776116968243,1507153594080203,9.739613,-0.20590134,-1.4077905,-0.004276057,0.007941248,0.002443461,TONIC,87b69e245e54
1776116968251,1507153602107595,9.76116,-0.19632454,-1.4341269,-0.0036651916,0.0067195175,0.0018325958,TONIC,87b69e245e54
1776116968259,1507153610103217,9.765948,-0.21547815,-1.4413095,-0.0030543262,0.010995574,0.0,TONIC,87b69e245e54
1776116968267,1507153618097686,9.770737,-0.21787235,-1.4173675,-0.002443461,0.013439035,0.0,TONIC,87b69e245e54
1776116968275,1507153626093385,9.758766,-0.20350714,-1.4197617,-0.002443461,0.018936822,-0.0030543262,TONIC,87b69e245e54
1776116968283,1507153634086623,9.76116,-0.19632454,-1.4149733,-6.1086525E-4,0.021991149,-0.004886922,TONIC,87b69e245e54
1776116968291,1507153642082399,9.715671,-0.1364695,-1.388637,-6.1086525E-4,0.023823744,-0.004276057,TONIC,87b69e245e54
1776116968299,1507153650079867,9.739613,-0.14844051,-1.3718776,0.0,0.022602014,-0.004276057,TONIC,87b69e245e54
1776116968307,1507153658104798,9.753978,-0.15801731,-1.3623008,-0.0012217305,0.021380283,-0.0012217305,TONIC,87b69e245e54
1776116968315,1507153666099957,9.734824,-0.16759412,-1.3958195,0.0,0.019547688,-6.1086525E-4,TONIC,87b69e245e54
1776116968323,1507153674097503,9.7563715,-0.15083471,-1.3670892,0.0,0.017104227,0.0,TONIC,87b69e245e54
1776116968331,1507153682093202,9.76116,-0.1436521,-1.3838485,-6.1086525E-4,0.015271631,0.0018325958,TONIC,87b69e245e54
1776116968339,1507153690088825,9.744401,-0.15562311,-1.3790601,-6.1086525E-4,0.016493361,0.0030543262,TONIC,87b69e245e54
1776116968347,1507153698084832,9.742006,-0.17238252,-1.3742718,-6.1086525E-4,0.014660766,0.004886922,TONIC,87b69e245e54
1776116968355,1507153706078993,9.730036,-0.17238252,-1.3599066,-0.0018325958,0.014660766,0.0067195175,TONIC,87b69e245e54
1776116968363,1507153714104230,9.727641,-0.19153613,-1.3623008,-0.004276057,0.010995574,0.0067195175,TONIC,87b69e245e54
1776116968371,1507153722100237,9.744401,-0.18674773,-1.3263878,-0.0036651916,0.002443461,0.005497787,TONIC,87b69e245e54
1776116968379,1507153730097475,9.7563715,-0.20350714,-1.3503298,-0.0030543262,-0.004276057,0.005497787,TONIC,87b69e245e54
1776116968387,1507153738092944,9.758766,-0.19632454,-1.376666,-0.0036651916,-0.009162978,0.004886922,TONIC,87b69e245e54
1776116968395,1507153746086720,9.770737,-0.19393034,-1.376666,-0.0030543262,-0.01282817,0.005497787,TONIC,87b69e245e54
1776116968403,1507153754083419,9.787497,-0.21787235,-1.4030021,-0.0030543262,-0.012217305,0.004276057,TONIC,87b69e245e54
1776116968411,1507153762111042,9.77792,-0.20350714,-1.3838485,-0.002443461,-0.007941248,0.002443461,TONIC,87b69e245e54
1776116968419,1507153770106126,9.773131,-0.18195933,-1.4053963,-0.0030543262,-0.007330383,6.1086525E-4,TONIC,87b69e245e54
1776116968427,1507153778100056,9.7563715,-0.17477672,-1.3814543,-0.0018325958,-0.0061086523,6.1086525E-4,TONIC,87b69e245e54
1776116968435,1507153786096678,9.749189,-0.18674773,-1.3814543,-0.002443461,-0.007330383,0.0012217305,TONIC,87b69e245e54
1776116968443,1507153794091762,9.749189,-0.18195933,-1.3838485,-0.0012217305,-0.007941248,0.0012217305,TONIC,87b69e245e54
1776116968451,1507153802086846,9.751583,-0.19153613,-1.4030021,-6.1086525E-4,-0.01038471,-6.1086525E-4,TONIC,87b69e245e54
1776116968459,1507153810085545,9.7563715,-0.19153613,-1.400608,-0.0018325958,-0.01038471,0.002443461,TONIC,87b69e245e54
1776116968467,1507153818077937,9.773131,-0.17717093,-1.4077905,-0.0018325958,-0.01038471,0.002443461,TONIC,87b69e245e54
1776116968475,1507153826105329,9.7563715,-0.17956513,-1.3862427,-0.0012217305,-0.009162978,0.0018325958,TONIC,87b69e245e54
1776116968483,1507153834100951,9.768343,-0.18914193,-1.3862427,-0.002443461,-0.007330383,0.0018325958,TONIC,87b69e245e54
1776116968491,1507153842096958,9.749189,-0.16280572,-1.388637,-0.0018325958,-0.009162978,0.0030543262,TONIC,87b69e245e54
1776116968499,1507153850093965,9.76116,-0.16998832,-1.3814543,-0.0018325958,-0.01160644,0.0030543262,TONIC,87b69e245e54
1776116968507,1507153858086510,9.763555,-0.19393034,-1.4149733,-0.0012217305,-0.013439035,0.004276057,TONIC,87b69e245e54
1776116968515,1507153866083441,9.758766,-0.21308395,-1.4053963,-0.002443461,-0.01160644,0.0030543262,TONIC,87b69e245e54
1776116968523,1507153874078525,9.751583,-0.19393034,-1.412579,-0.0012217305,-0.01282817,0.004276057,TONIC,87b69e245e54
1776116968531,1507153882103839,9.7563715,-0.19632454,-1.400608,-6.1086525E-4,-0.014049901,0.0030543262,TONIC,87b69e245e54
1776116968539,1507153890102000,9.753978,-0.19871874,-1.4101849,6.1086525E-4,-0.012217305,0.0012217305,TONIC,87b69e245e54
1776116968547,1507153898094852,9.753978,-0.20590134,-1.4053963,-0.0012217305,-0.013439035,0.0012217305,TONIC,87b69e245e54
1776116968555,1507153906092782,9.76116,-0.21787235,-1.3958195,0.0,-0.010995574,0.0012217305,TONIC,87b69e245e54
1776116968563,1507153914087251,9.76116,-0.21787235,-1.4149733,-6.1086525E-4,-0.007941248,-6.1086525E-4,TONIC,87b69e245e54
1776116968571,1507153922082258,9.76116,-0.23223756,-1.4053963,0.0,-0.009162978,-0.0012217305,TONIC,87b69e245e54
1776116968579,1507153930079803,9.734824,-0.22026655,-1.3958195,-6.1086525E-4,-0.005497787,-6.1086525E-4,TONIC,87b69e245e54
1776116968587,1507153938105734,9.744401,-0.20590134,-1.4053963,-6.1086525E-4,-0.0067195175,-0.0012217305,TONIC,87b69e245e54
1776116968595,1507153946100433,9.749189,-0.19871874,-1.4030021,-6.1086525E-4,-0.004276057,-0.002443461,TONIC,87b69e245e54
1776116968603,1507153954094978,9.744401,-0.20590134,-1.4197617,-6.1086525E-4,-0.004276057,-0.002443461,TONIC,87b69e245e54
1776116968611,1507153962092447,9.722853,-0.20590134,-1.4173675,-0.0018325958,-0.004276057,-0.0036651916,TONIC,87b69e245e54
1776116968619,1507153970086608,9.727641,-0.21547815,-1.4173675,-0.0018325958,-0.0018325958,-0.0030543262,TONIC,87b69e245e54
1776116968627,1507153978082076,9.7324295,-0.20111294,-1.412579,-0.0012217305,-0.004886922,-0.0036651916,TONIC,87b69e245e54
1776116968635,1507153986077468,9.749189,-0.19393034,-1.412579,-0.0018325958,-0.004276057,-0.002443461,TONIC,87b69e245e54
1776116968643,1507153994104475,9.742006,-0.19632454,-1.4269443,-0.0036651916,-0.0067195175,-0.0036651916,TONIC,87b69e245e54
1776116968651,1507154002100790,9.737218,-0.19632454,-1.4413095,-0.002443461,-0.004276057,-0.0018325958,TONIC,87b69e245e54
1776116968659,1507154010097797,9.753978,-0.17717093,-1.4413095,-0.0036651916,-0.002443461,-0.0018325958,TONIC,87b69e245e54
1776116968667,1507154018093188,9.746795,-0.17717093,-1.4437037,-0.002443461,-0.0018325958,-6.1086525E-4,TONIC,87b69e245e54
1776116968675,1507154026086965,9.742006,-0.16759412,-1.4317327,-0.0030543262,0.0030543262,-0.0030543262,TONIC,87b69e245e54
1776116968683,1507154034082125,9.734824,-0.1604115,-1.4173675,-0.0012217305,0.005497787,-0.0018325958,TONIC,87b69e245e54
1776116968691,1507154042107902,9.7324295,-0.15322891,-1.4317327,-0.0012217305,0.007941248,-0.0036651916,TONIC,87b69e245e54
1776116968699,1507154050105524,9.725247,-0.15562311,-1.4293385,-0.0012217305,0.010995574,-6.1086525E-4,TONIC,87b69e245e54
1776116968707,1507154058098454,9.7324295,-0.16998832,-1.4317327,-0.0012217305,0.012217305,6.1086525E-4,TONIC,87b69e245e54
1776116968715,1507154066094154,9.7324295,-0.18195933,-1.4053963,-0.002443461,0.015882496,6.1086525E-4,TONIC,87b69e245e54
1776116968723,1507154074090468,9.720459,-0.16280572,-1.4030021,-0.0012217305,0.016493361,0.0018325958,TONIC,87b69e245e54
1776116968731,1507154082087014,9.737218,-0.18435353,-1.4173675,-0.0012217305,0.017715093,0.0012217305,TONIC,87b69e245e54
1776116968739,1507154090083713,9.742006,-0.19393034,-1.3958195,-0.002443461,0.016493361,0.0018325958,TONIC,87b69e245e54
1776116968747,1507154098107643,9.7324295,-0.18435353,-1.3982137,-0.0018325958,0.017104227,0.0018325958,TONIC,87b69e245e54
1776116968755,1507154106104573,9.758766,-0.19632454,-1.3862427,-0.0018325958,0.015271631,0.0012217305,TONIC,87b69e245e54
1776116968763,1507154114098811,9.742006,-0.16280572,-1.388637,-0.0030543262,0.015882496,0.0012217305,TONIC,87b69e245e54
1776116968771,1507154122097586,9.758766,-0.18195933,-1.3958195,-0.002443461,0.015271631,0.0018325958,TONIC,87b69e245e54
1776116968779,1507154130092363,9.749189,-0.17717093,-1.3814543,-0.0018325958,0.014660766,-6.1086525E-4,TONIC,87b69e245e54
1776116968787,1507154138087370,9.720459,-0.16759412,-1.3862427,-6.1086525E-4,0.01160644,-6.1086525E-4,TONIC,87b69e245e54
1776116968795,1507154146082223,9.706094,-0.15083471,-1.364695,-0.0012217305,0.01160644,0.0,TONIC,87b69e245e54
1776116968803,1507154154076691,9.746795,-0.16280572,-1.3814543,-0.0018325958,0.01038471,0.0012217305,TONIC,87b69e245e54
1776116968811,1507154162104621,9.749189,-0.15801731,-1.364695,-0.0012217305,0.0067195175,0.0036651916,TONIC,87b69e245e54
1776116968819,1507154170101551,9.758766,-0.16759412,-1.3670892,-6.1086525E-4,0.0067195175,0.0036651916,TONIC,87b69e245e54
1776116968827,1507154178096020,9.734824,-0.19393034,-1.376666,6.1086525E-4,0.005497787,0.005497787,TONIC,87b69e245e54
1776116968835,1507154186091489,9.753978,-0.19153613,-1.3694834,-6.1086525E-4,0.0030543262,0.005497787,TONIC,87b69e245e54
1776116968843,1507154194086803,9.765948,-0.18435353,-1.3718776,-0.0012217305,0.0036651916,0.004276057,TONIC,87b69e245e54
1776116968851,1507154202081656,9.753978,-0.18914193,-1.388637,0.0012217305,-0.0012217305,0.0036651916,TONIC,87b69e245e54
1776116968859,1507154210132433,9.758766,-0.20111294,-1.388637,0.0018325958,-0.0030543262,0.0018325958,TONIC,87b69e245e54
1776116968867,1507154218074517,9.739613,-0.19393034,-1.3814543,0.002443461,-0.0036651916,0.0018325958,TONIC,87b69e245e54
1776116968875,1507154226098524,9.768343,-0.20111294,-1.3790601,6.1086525E-4,-0.005497787,0.0036651916,TONIC,87b69e245e54
1776116968883,1507154234093915,9.751583,-0.17956513,-1.3623008,0.0018325958,-0.005497787,0.0030543262,TONIC,87b69e245e54
1776116968891,1507154242090615,9.775525,-0.21787235,-1.364695,0.002443461,-0.0061086523,0.0012217305,TONIC,87b69e245e54
1776116968899,1507154250087237,9.758766,-0.20829555,-1.3670892,0.0,-0.007941248,0.0,TONIC,87b69e245e54
1776116968907,1507154258106244,9.7563715,-0.20829555,-1.3599066,0.002443461,-0.010995574,0.0,TONIC,87b69e245e54
1776116968915,1507154266078328,9.7563715,-0.21068975,-1.3670892,0.0036651916,-0.01282817,-6.1086525E-4,TONIC,87b69e245e54
1776116968923,1507154274072489,9.758766,-0.20350714,-1.3814543,0.0036651916,-0.014049901,-0.002443461,TONIC,87b69e245e54
1776116968931,1507154282154034,9.765948,-0.21068975,-1.3910311,0.0018325958,-0.015882496,-0.0012217305,TONIC,87b69e245e54
1776116968939,1507154290094657,9.763555,-0.18914193,-1.3838485,0.0018325958,-0.016493361,-0.0018325958,TONIC,87b69e245e54
1776116968946,1507154297741663,9.758766,-0.18435353,-1.3958195,0.002443461,-0.015882496,-0.002443461,TONIC,87b69e245e54
1776116968955,1507154306087594,9.765948,-0.20111294,-1.4030021,0.005497787,-0.012217305,-0.002443461,TONIC,87b69e245e54
1776116968963,1507154314081062,9.739613,-0.19871874,-1.388637,0.002443461,-0.014660766,-0.0030543262,TONIC,87b69e245e54
1776116968971,1507154322107223,9.749189,-0.18914193,-1.412579,0.0012217305,-0.014049901,-0.0036651916,TONIC,87b69e245e54
1776116968979,1507154330158307,9.744401,-0.19153613,-1.4101849,0.0012217305,-0.01282817,-0.002443461,TONIC,87b69e245e54
1776116968987,1507154338097776,9.734824,-0.19153613,-1.412579,-0.0012217305,-0.014660766,-0.0012217305,TONIC,87b69e245e54
1776116968995,1507154346093474,9.742006,-0.20350714,-1.4030021,0.0030543262,-0.014049901,-0.0030543262,TONIC,87b69e245e54
1776116969002,1507154353742020,9.739613,-0.17956513,-1.4077905,0.0018325958,-0.01160644,-0.0036651916,TONIC,87b69e245e54
1776116969011,1507154362049180,9.734824,-0.18674773,-1.412579,0.004276057,-0.008552114,-0.004276057,TONIC,87b69e245e54
1776116969019,1507154370082649,9.742006,-0.19153613,-1.412579,0.004886922,-0.009773844,-0.0036651916,TONIC,87b69e245e54
1776116969027,1507154378108271,9.739613,-0.18435353,-1.4101849,0.0036651916,-0.008552114,-0.0036651916,TONIC,87b69e245e54
1776116969035,1507154386158048,9.739613,-0.19153613,-1.4101849,0.002443461,-0.005497787,-0.0018325958,TONIC,87b69e245e54
1776116969043,1507154394097824,9.744401,-0.19632454,-1.4221559,0.004276057,-0.0036651916,-0.002443461,TONIC,87b69e245e54
1776116969050,1507154401994446,9.727641,-0.20590134,-1.412579,0.0036651916,-0.0030543262,-0.004276057,TONIC,87b69e245e54
1776116969059,1507154410091376,9.7563715,-0.16998832,-1.400608,0.002443461,-0.0018325958,-0.004886922,TONIC,87b69e245e54
1776116969067,1507154418084614,9.76116,-0.17717093,-1.3910311,6.1086525E-4,-0.0012217305,-0.0030543262,TONIC,87b69e245e54
1776116969075,1507154426079698,9.76116,-0.19393034,-1.4030021,0.0036651916,-0.0012217305,-0.0018325958,TONIC,87b69e245e54
1776116969083,1507154434107628,9.753978,-0.17956513,-1.3934253,0.002443461,-0.0030543262,-0.0018325958,TONIC,87b69e245e54
1776116969091,1507154442101866,9.742006,-0.16519992,-1.4030021,0.002443461,-0.0012217305,-0.0036651916,TONIC,87b69e245e54
1776116969098,1507154449633258,9.758766,-0.16998832,-1.4053963,0.0036651916,-0.0030543262,-0.002443461,TONIC,87b69e245e54
1776116969107,1507154458094419,9.739613,-0.15322891,-1.3982137,0.002443461,-0.0012217305,-0.0018325958,TONIC,87b69e245e54
1776116969114,1507154465679964,9.751583,-0.16519992,-1.3910311,0.0018325958,-6.1086525E-4,-0.0018325958,TONIC,87b69e245e54
1776116969122,1507154473535662,9.746795,-0.17238252,-1.3742718,0.0012217305,-6.1086525E-4,-6.1086525E-4,TONIC,87b69e245e54
1776116969131,1507154482079978,9.751583,-0.17956513,-1.3934253,6.1086525E-4,6.1086525E-4,6.1086525E-4,TONIC,87b69e245e54
1776116969139,1507154490131677,9.768343,-0.18914193,-1.400608,0.0018325958,0.0,0.0012217305,TONIC,87b69e245e54
1776116969147,1507154498070531,9.725247,-0.17717093,-1.3982137,0.0018325958,0.0,0.0012217305,TONIC,87b69e245e54
1776116969155,1507154506122768,9.734824,-0.19393034,-1.3814543,0.0012217305,-6.1086525E-4,0.0018325958,TONIC,87b69e245e54
1776116969163,1507154514094160,9.751583,-0.19393034,-1.400608,0.0,0.0,0.0012217305,TONIC,87b69e245e54
1776116969171,1507154522090167,9.765948,-0.17477672,-1.364695,6.1086525E-4,6.1086525E-4,0.0030543262,TONIC,87b69e245e54
1776116969179,1507154530140097,9.7563715,-0.18914193,-1.3862427,0.002443461,0.0,0.0012217305,TONIC,87b69e245e54
1776116969187,1507154538080643,9.7563715,-0.19871874,-1.376666,0.0,-0.002443461,0.0018325958,TONIC,87b69e245e54
1776116969195,1507154546098573,9.737218,-0.20111294,-1.3790601,0.0,-0.002443461,6.1086525E-4,TONIC,87b69e245e54
1776116969203,1507154554071118,9.739613,-0.19632454,-1.388637,0.0,-0.004886922,0.002443461,TONIC,87b69e245e54
1776116969211,1507154562066586,9.753978,-0.19393034,-1.4077905,-6.1086525E-4,-0.005497787,0.0012217305,TONIC,87b69e245e54
1776116969219,1507154570092977,9.765948,-0.18914193,-1.3790601,0.0012217305,-0.004886922,0.0012217305,TONIC,87b69e245e54
1776116969227,1507154578088061,9.76116,-0.17956513,-1.388637,0.0018325958,-0.0061086523,-6.1086525E-4,TONIC,87b69e245e54
1776116969235,1507154586085684,9.746795,-0.19153613,-1.3862427,0.002443461,-0.004886922,0.0012217305,TONIC,87b69e245e54
1776116969243,1507154594105075,9.734824,-0.17238252,-1.3790601,0.0030543262,-0.0061086523,0.0,TONIC,87b69e245e54
1776116969251,1507154602075852,9.744401,-0.18195933,-1.3790601,0.0012217305,-0.007330383,-0.0018325958,TONIC,87b69e245e54
1776116969259,1507154610102551,9.758766,-0.19871874,-1.3718776,0.0030543262,-0.0067195175,0.0,TONIC,87b69e245e54
1776116969266,1507154617744712,9.744401,-0.17717093,-1.3910311,0.002443461,-0.007330383,-6.1086525E-4,TONIC,87b69e245e54
1776116969275,1507154626118026,9.753978,-0.18914193,-1.3742718,0.0030543262,-0.008552114,0.0,TONIC,87b69e245e54
1776116969283,1507154634089341,9.7563715,-0.18195933,-1.3958195,0.004276057,-0.0061086523,0.0,TONIC,87b69e245e54
1776116969291,1507154642139810,9.746795,-0.18674773,-1.3838485,0.004276057,-0.005497787,-0.0012217305,TONIC,87b69e245e54
1776116969299,1507154650081740,9.768343,-0.20590134,-1.3982137,0.004886922,-0.004276057,-6.1086525E-4,TONIC,87b69e245e54
1776116969307,1507154658106362,9.751583,-0.20829555,-1.3958195,0.0036651916,-0.0067195175,0.0,TONIC,87b69e245e54
1776116969315,1507154666101369,9.742006,-0.20829555,-1.3934253,0.004276057,-0.01160644,0.0012217305,TONIC,87b69e245e54
1776116969322,1507154673745992,9.7324295,-0.20350714,-1.3623008,0.0036651916,-0.015271631,-0.0018325958,TONIC,87b69e245e54
1776116969331,1507154682087306,9.739613,-0.20829555,-1.3742718,0.0030543262,-0.015882496,-0.0036651916,TONIC,87b69e245e54
1776116969339,1507154690091544,9.758766,-0.20590134,-1.3910311,0.002443461,-0.020158553,-0.0030543262,TONIC,87b69e245e54
1776116969347,1507154698085782,9.76116,-0.19632454,-1.4053963,0.0018325958,-0.021991149,-0.0036651916,TONIC,87b69e245e54
1776116969355,1507154706079020,9.775525,-0.19632454,-1.4293385,0.004276057,-0.018325957,-0.0036651916,TONIC,87b69e245e54
1776116969363,1507154714107642,9.782708,-0.18435353,-1.4269443,0.0030543262,-0.015271631,-0.0036651916,TONIC,87b69e245e54
1776116969371,1507154722102649,9.768343,-0.18195933,-1.400608,0.004276057,-0.010995574,-0.0036651916,TONIC,87b69e245e54
1776116969379,1507154730099656,9.749189,-0.15562311,-1.412579,0.004276057,-0.009162978,-0.004276057,TONIC,87b69e245e54
1776116969387,1507154738091971,9.749189,-0.15322891,-1.3934253,0.002443461,-0.007941248,-0.004276057,TONIC,87b69e245e54
1776116969395,1507154746143670,9.737218,-0.18195933,-1.3958195,0.0030543262,-0.008552114,-0.0030543262,TONIC,87b69e245e54
1776116969403,1507154754083677,9.742006,-0.16759412,-1.3958195,0.0036651916,-0.009773844,-0.0018325958,TONIC,87b69e245e54
1776116969411,1507154762079069,9.753978,-0.17238252,-1.4149733,0.002443461,-0.007330383,0.0,TONIC,87b69e245e54
1776116969419,1507154770161153,9.737218,-0.19153613,-1.4030021,0.0030543262,-0.005497787,6.1086525E-4,TONIC,87b69e245e54
1776116969426,1507154777971620,9.744401,-0.17238252,-1.4077905,0.0018325958,-0.0067195175,0.0,TONIC,87b69e245e54
1776116969435,1507154786065244,9.742006,-0.17477672,-1.4053963,0.002443461,-0.004276057,6.1086525E-4,TONIC,87b69e245e54
1776116969443,1507154794091942,9.727641,-0.16519992,-1.3790601,0.002443461,-0.0030543262,0.0,TONIC,87b69e245e54
1776116969451,1507154802088334,9.720459,-0.16519992,-1.3958195,0.0030543262,-0.0030543262,0.0,TONIC,87b69e245e54
1776116969459,1507154810085264,9.737218,-0.16759412,-1.400608,0.0030543262,-0.0030543262,0.0,TONIC,87b69e245e54
1776116969466,1507154817727117,9.7563715,-0.17477672,-1.400608,0.004886922,-6.1086525E-4,0.0,TONIC,87b69e245e54
1776116969474,1507154825579662,9.76116,-0.18195933,-1.3934253,0.004276057,6.1086525E-4,0.0012217305,TONIC,87b69e245e54
1776116969483,1507154834100362,9.770737,-0.17238252,-1.3742718,0.004886922,0.0012217305,0.002443461,TONIC,87b69e245e54
1776116969491,1507154842097830,9.739613,-0.17956513,-1.3790601,0.004276057,0.0,0.0012217305,TONIC,87b69e245e54
1776116969499,1507154850117222,9.763555,-0.19632454,-1.3670892,0.002443461,-0.002443461,6.1086525E-4,TONIC,87b69e245e54
1776116969507,1507154858087383,9.746795,-0.18435353,-1.3814543,0.0018325958,-0.004276057,0.0030543262,TONIC,87b69e245e54
1776116969515,1507154866014544,9.76116,-0.19393034,-1.3718776,6.1086525E-4,-0.009162978,0.002443461,TONIC,87b69e245e54
1776116969523,1507154874080320,9.770737,-0.20829555,-1.3694834,0.0012217305,-0.010995574,0.0036651916,TONIC,87b69e245e54
1776116969531,1507154882106173,9.770737,-0.19393034,-1.3599066,0.0012217305,-0.01160644,0.0036651916,TONIC,87b69e245e54
1776116969539,1507154890125872,9.768343,-0.20350714,-1.364695,6.1086525E-4,-0.014660766,0.004886922,TONIC,87b69e245e54
1776116969547,1507154898065956,9.765948,-0.21547815,-1.364695,0.0012217305,-0.015882496,0.004276057,TONIC,87b69e245e54
1776116969555,1507154906023425,9.773131,-0.21547815,-1.3694834,6.1086525E-4,-0.018936822,0.0018325958,TONIC,87b69e245e54
1776116969563,1507154914089970,9.773131,-0.20350714,-1.3694834,6.1086525E-4,-0.025045475,0.0012217305,TONIC,87b69e245e54
1776116969571,1507154922083131,9.768343,-0.22505496,-1.3742718,6.1086525E-4,-0.028710667,0.0,TONIC,87b69e245e54
1776116969579,1507154930111523,9.751583,-0.22266077,-1.3934253,-6.1086525E-4,-0.03359759,-0.0018325958,TONIC,87b69e245e54
1776116969587,1507154938106299,9.744401,-0.21068975,-1.4197617,-0.0012217305,-0.034208454,-0.0018325958,TONIC,87b69e245e54
1776116969594,1507154945748691,9.744401,-0.19632454,-1.4293385,0.0,-0.03481932,-0.0012217305,TONIC,87b69e245e54
1776116969603,1507154954096159,9.730036,-0.21547815,-1.4197617,-0.0012217305,-0.034208454,-0.0030543262,TONIC,87b69e245e54
1776116969611,1507154962091782,9.720459,-0.18674773,-1.4317327,0.0,-0.030543262,-0.0012217305,TONIC,87b69e245e54
1776116969618,1507154969603865,9.753978,-0.18914193,-1.460463,0.0018325958,-0.02565634,-0.0018325958,TONIC,87b69e245e54
1776116969626,1507154977595256,9.722853,-0.19393034,-1.4508862,0.0,-0.02321288,-0.0030543262,TONIC,87b69e245e54
1776116969635,1507154986079572,9.737218,-0.19153613,-1.448492,0.0018325958,-0.019547688,-0.0030543262,TONIC,87b69e245e54
1776116969642,1507154993592809,9.737218,-0.18914193,-1.4508862,0.0012217305,-0.015271631,-0.002443461,TONIC,87b69e245e54
1776116969651,1507155002101663,9.7324295,-0.18435353,-1.460463,0.004886922,-0.0061086523,-0.004886922,TONIC,87b69e245e54
1776116969659,1507155010151593,9.727641,-0.17477672,-1.448492,0.0036651916,-0.0061086523,-0.004276057,TONIC,87b69e245e54
1776116969667,1507155018091215,9.725247,-0.17717093,-1.4437037,0.0036651916,-0.002443461,-0.004886922,TONIC,87b69e245e54
1776116969675,1507155026088145,9.727641,-0.17717093,-1.4269443,0.0036651916,-0.0036651916,-0.0030543262,TONIC,87b69e245e54
1776116969682,1507155033568459,9.746795,-0.16998832,-1.4221559,0.005497787,0.0018325958,-0.0036651916,TONIC,87b69e245e54
1776116969691,1507155042108159,9.713276,-0.15322891,-1.4269443,0.004886922,0.0036651916,-0.0030543262,TONIC,87b69e245e54
1776116969699,1507155050103935,9.713276,-0.15801731,-1.4317327,0.0036651916,0.0067195175,-0.0030543262,TONIC,87b69e245e54
1776116969707,1507155058101173,9.727641,-0.1604115,-1.4197617,0.0036651916,0.009773844,-0.0030543262,TONIC,87b69e245e54
1776116969715,1507155066120872,9.713276,-0.17238252,-1.4077905,0.0030543262,0.009773844,-0.0030543262,TONIC,87b69e245e54
1776116969723,1507155074091033,9.737218,-0.17956513,-1.4149733,0.004886922,0.012217305,-0.0012217305,TONIC,87b69e245e54
1776116969731,1507155082057501,9.749189,-0.20590134,-1.3958195,0.004886922,0.013439035,-0.0018325958,TONIC,87b69e245e54
1776116969739,1507155090138124,9.751583,-0.17238252,-1.3838485,0.0036651916,0.012217305,-0.0018325958,TONIC,87b69e245e54
1776116969747,1507155098078131,9.758766,-0.18674773,-1.376666,0.007330383,0.012217305,-6.1086525E-4,TONIC,87b69e245e54
1776116969754,1507155105592215,9.758766,-0.16759412,-1.3910311,0.0030543262,0.009773844,0.0,TONIC,87b69e245e54
1776116969763,1507155114124914,9.751583,-0.16998832,-1.3958195,0.002443461,0.005497787,0.0,TONIC,87b69e245e54
1776116969771,1507155122066075,9.746795,-0.16759412,-1.3910311,0.004886922,0.0067195175,0.0,TONIC,87b69e245e54
1776116969779,1507155130093851,9.742006,-0.17956513,-1.3862427,0.0018325958,0.0067195175,0.0012217305,TONIC,87b69e245e54
1776116969787,1507155138088243,9.753978,-0.19632454,-1.3718776,0.0018325958,0.004886922,6.1086525E-4,TONIC,87b69e245e54
1776116969795,1507155146082096,9.751583,-0.16519992,-1.3790601,0.0012217305,0.0036651916,6.1086525E-4,TONIC,87b69e245e54
1776116969803,1507155154079642,9.739613,-0.18195933,-1.3862427,0.0018325958,0.0036651916,0.0018325958,TONIC,87b69e245e54
1776116969811,1507155162103726,9.734824,-0.17717093,-1.388637,0.0012217305,0.004276057,0.0012217305,TONIC,87b69e245e54
1776116969819,1507155170101886,9.765948,-0.19871874,-1.3838485,0.0018325958,0.002443461,6.1086525E-4,TONIC,87b69e245e54
1776116969827,1507155178095355,9.768343,-0.19393034,-1.3862427,0.0030543262,0.002443461,0.0012217305,TONIC,87b69e245e54
1776116969835,1507155186090824,9.751583,-0.19871874,-1.376666,0.0018325958,0.002443461,6.1086525E-4,TONIC,87b69e245e54
1776116969843,1507155194086831,9.76116,-0.19871874,-1.3790601,0.002443461,6.1086525E-4,0.0012217305,TONIC,87b69e245e54
1776116969851,1507155202082222,9.7563715,-0.21787235,-1.3599066,0.0018325958,0.0,0.0,TONIC,87b69e245e54
1776116969859,1507155210107691,9.7803135,-0.21068975,-1.3814543,0.002443461,-0.0018325958,0.0,TONIC,87b69e245e54
1776116969867,1507155218105236,9.770737,-0.19871874,-1.3694834,0.0018325958,-0.0036651916,0.0,TONIC,87b69e245e54
1776116969875,1507155226099397,9.775525,-0.20590134,-1.364695,0.0018325958,-0.004886922,-0.0012217305,TONIC,87b69e245e54
1776116969883,1507155234096404,9.749189,-0.19393034,-1.364695,0.002443461,-0.009773844,-6.1086525E-4,TONIC,87b69e245e54
1776116969891,1507155242090796,9.775525,-0.20829555,-1.3623008,0.0018325958,-0.009773844,-0.0012217305,TONIC,87b69e245e54
1776116969899,1507155250088109,9.751583,-0.19871874,-1.3790601,0.002443461,-0.015271631,-0.002443461,TONIC,87b69e245e54
1776116969907,1507155258083193,9.758766,-0.19153613,-1.3599066,0.002443461,-0.017715093,-0.0030543262,TONIC,87b69e245e54
1776116969915,1507155266107816,9.742006,-0.18914193,-1.376666,0.002443461,-0.018325957,-0.002443461,TONIC,87b69e245e54
1776116969923,1507155274103746,9.753978,-0.20590134,-1.3910311,0.0018325958,-0.021380283,-0.0030543262,TONIC,87b69e245e54
1776116969931,1507155282099522,9.746795,-0.18914193,-1.4030021,6.1086525E-4,-0.015882496,-0.002443461,TONIC,87b69e245e54
1776116969939,1507155290095452,9.749189,-0.16759412,-1.3910311,-6.1086525E-4,-0.015882496,0.0,TONIC,87b69e245e54
1776116969947,1507155298091536,9.751583,-0.16759412,-1.42455,0.0012217305,-0.017104227,-0.0018325958,TONIC,87b69e245e54
1776116969955,1507155306087466,9.749189,-0.17477672,-1.4221559,-6.1086525E-4,-0.014660766,0.0,TONIC,87b69e245e54
1776116969963,1507155314082935,9.76116,-0.1604115,-1.412579,0.0012217305,-0.010995574,0.0012217305,TONIC,87b69e245e54
1776116969971,1507155322109403,9.739613,-0.17477672,-1.412579,6.1086525E-4,-0.007941248,-6.1086525E-4,TONIC,87b69e245e54
1776116969979,1507155330104180,9.718064,-0.16519992,-1.4077905,6.1086525E-4,-0.007941248,0.0030543262,TONIC,87b69e245e54
1776116969987,1507155338098879,9.703699,-0.16759412,-1.3958195,-6.1086525E-4,-0.005497787,0.0012217305,TONIC,87b69e245e54
1776116969995,1507155346094963,9.727641,-0.17717093,-1.4030021,-6.1086525E-4,-0.0061086523,0.002443461,TONIC,87b69e245e54
1776116970003,1507155354090355,9.722853,-0.18674773,-1.4077905,6.1086525E-4,-0.007330383,0.0030543262,TONIC,87b69e245e54
1776116970011,1507155362141669,9.737218,-0.18435353,-1.3910311,0.0012217305,-0.0067195175,0.002443461,TONIC,87b69e245e54
1776116970019,1507155370082599,9.753978,-0.19871874,-1.3910311,0.0018325958,-0.005497787,0.0030543262,TONIC,87b69e245e54
1776116970027,1507155378010683,9.770737,-0.22026655,-1.4293385,0.0012217305,-0.0030543262,0.0036651916,TONIC,87b69e245e54
1776116970035,1507155386073690,9.765948,-0.19871874,-1.4341269,-0.0018325958,-0.0030543262,0.0036651916,TONIC,87b69e245e54
1776116970043,1507155394099005,9.76116,-0.21547815,-1.412579,-6.1086525E-4,0.0030543262,0.0018325958,TONIC,87b69e245e54
1776116970051,1507155402150089,9.734824,-0.20350714,-1.3982137,0.0018325958,0.0036651916,-0.0012217305,TONIC,87b69e245e54
1776116970059,1507155410089711,9.76116,-0.21547815,-1.4077905,0.0,0.0018325958,-6.1086525E-4,TONIC,87b69e245e54
1776116970067,1507155418086949,9.749189,-0.20590134,-1.4149733,0.0018325958,0.004886922,-6.1086525E-4,TONIC,87b69e245e54
1776116970075,1507155426081187,9.744401,-0.19153613,-1.4197617,0.0,0.0012217305,-0.0012217305,TONIC,87b69e245e54
1776116970083,1507155434109502,9.76116,-0.22266077,-1.400608,6.1086525E-4,0.0030543262,-0.0012217305,TONIC,87b69e245e54
1776116970091,1507155442104278,9.7563715,-0.21068975,-1.4030021,0.0012217305,6.1086525E-4,-6.1086525E-4,TONIC,87b69e245e54
1776116970098,1507155449679361,9.751583,-0.18914193,-1.4101849,0.0012217305,6.1086525E-4,-6.1086525E-4,TONIC,87b69e245e54
1776116970106,1507155457743599,9.727641,-0.16998832,-1.3958195,0.0,0.0012217305,-0.0036651916,TONIC,87b69e245e54
1776116970115,1507155466090068,9.739613,-0.18195933,-1.400608,-6.1086525E-4,6.1086525E-4,-0.0036651916,TONIC,87b69e245e54
1776116970123,1507155474085151,9.758766,-0.18435353,-1.3934253,0.0,0.0018325958,-0.0018325958,TONIC,87b69e245e54
1776116970131,1507155482136850,9.737218,-0.18435353,-1.4077905,6.1086525E-4,0.0018325958,-6.1086525E-4,TONIC,87b69e245e54
1776116970139,1507155490077781,9.739613,-0.17238252,-1.3934253,6.1086525E-4,0.002443461,-6.1086525E-4,TONIC,87b69e245e54
1776116970147,1507155498104326,9.730036,-0.16998832,-1.4101849,-0.0018325958,0.004276057,-0.0012217305,TONIC,87b69e245e54
1776116970155,1507155506098179,9.739613,-0.17717093,-1.4030021,-6.1086525E-4,0.0018325958,-6.1086525E-4,TONIC,87b69e245e54
1776116970163,1507155514094725,9.7324295,-0.16519992,-1.4101849,-0.0018325958,6.1086525E-4,6.1086525E-4,TONIC,87b69e245e54
1776116970171,1507155522090116,9.734824,-0.18914193,-1.4173675,-0.0012217305,0.002443461,0.0012217305,TONIC,87b69e245e54
1776116970179,1507155530087354,9.7324295,-0.20111294,-1.4221559,0.0,0.002443461,0.002443461,TONIC,87b69e245e54
1776116970186,1507155537566746,9.730036,-0.17717093,-1.42455,-0.0012217305,0.005497787,6.1086525E-4,TONIC,87b69e245e54
1776116970195,1507155546132291,9.746795,-0.17956513,-1.4197617,-0.0030543262,0.005497787,0.0018325958,TONIC,87b69e245e54
1776116970203,1507155554073529,9.753978,-0.19632454,-1.4197617,-0.0012217305,0.01038471,0.0030543262,TONIC,87b69e245e54
1776116970211,1507155562068921,9.746795,-0.19153613,-1.4053963,0.0012217305,0.01282817,0.0012217305,TONIC,87b69e245e54
1776116970219,1507155570149620,9.751583,-0.19632454,-1.3910311,0.0012217305,0.013439035,0.0018325958,TONIC,87b69e245e54
1776116970227,1507155578091704,9.763555,-0.19153613,-1.376666,0.0,0.012217305,0.0012217305,TONIC,87b69e245e54
1776116970235,1507155586084326,9.746795,-0.21308395,-1.3790601,6.1086525E-4,0.01282817,0.0018325958,TONIC,87b69e245e54
1776116970243,1507155594083718,9.746795,-0.21068975,-1.3838485,0.0,0.009162978,-6.1086525E-4,TONIC,87b69e245e54
1776116970251,1507155602108417,9.744401,-0.18674773,-1.3838485,0.0,0.007330383,-6.1086525E-4,TONIC,87b69e245e54
1776116970259,1507155610104963,9.763555,-0.18914193,-1.3958195,0.0,0.0061086523,-6.1086525E-4,TONIC,87b69e245e54
1776116970267,1507155618099201,9.753978,-0.20829555,-1.3862427,0.0018325958,0.0067195175,0.0,TONIC,87b69e245e54
1776116970275,1507155626063208,9.773131,-0.19153613,-1.3934253,0.0018325958,0.0061086523,-0.0012217305,TONIC,87b69e245e54
1776116970283,1507155634089061,9.746795,-0.19632454,-1.3910311,0.0,0.009162978,-0.0012217305,TONIC,87b69e245e54
1776116970291,1507155642086606,9.768343,-0.17956513,-1.3742718,0.0018325958,0.008552114,-0.0018325958,TONIC,87b69e245e54
1776116970299,1507155650105690,9.76116,-0.19632454,-1.3694834,0.0,0.0067195175,-0.002443461,TONIC,87b69e245e54
1776116970307,1507155658076159,9.765948,-0.18914193,-1.3718776,0.0012217305,0.0067195175,-6.1086525E-4,TONIC,87b69e245e54
1776116970315,1507155666102012,9.775525,-0.19393034,-1.3623008,6.1086525E-4,0.0018325958,-0.0018325958,TONIC,87b69e245e54
1776116970323,1507155674099173,9.773131,-0.18435353,-1.3670892,0.0018325958,-0.0012217305,-0.002443461,TONIC,87b69e245e54
1776116970331,1507155682149334,9.768343,-0.19393034,-1.3862427,-6.1086525E-4,-0.004276057,-0.0012217305,TONIC,87b69e245e54
1776116970339,1507155690090956,9.7563715,-0.17477672,-1.3862427,0.0012217305,-0.0061086523,-0.002443461,TONIC,87b69e245e54
1776116970347,1507155698086654,9.727641,-0.16759412,-1.3910311,0.0,-0.007941248,0.0,TONIC,87b69e245e54
1776116970355,1507155706109969,9.737218,-0.16519992,-1.3790601,0.0012217305,-0.009773844,-6.1086525E-4,TONIC,87b69e245e54
1776116970363,1507155714107284,9.744401,-0.17956513,-1.3814543,6.1086525E-4,-0.008552114,0.0,TONIC,87b69e245e54
1776116970371,1507155722102906,9.742006,-0.18195933,-1.3862427,0.002443461,-0.01160644,0.0,TONIC,87b69e245e54
1776116970379,1507155730122913,9.749189,-0.18674773,-1.400608,0.0012217305,-0.01038471,6.1086525E-4,TONIC,87b69e245e54
1776116970387,1507155738094382,9.763555,-0.18435353,-1.4149733,0.0018325958,-0.009162978,0.0,TONIC,87b69e245e54
1776116970394,1507155745989773,9.753978,-0.20350714,-1.3862427,6.1086525E-4,-0.007941248,6.1086525E-4,TONIC,87b69e245e54
1776116970403,1507155754086703,9.739613,-0.18674773,-1.4053963,6.1086525E-4,-0.0061086523,-6.1086525E-4,TONIC,87b69e245e54
1776116970411,1507155762079326,9.742006,-0.19632454,-1.3982137,0.0012217305,-0.0067195175,0.0,TONIC,87b69e245e54
1776116970419,1507155770107564,9.737218,-0.17238252,-1.400608,-6.1086525E-4,-0.008552114,0.0,TONIC,87b69e245e54
1776116970427,1507155778101417,9.742006,-0.16519992,-1.3958195,0.0,-0.008552114,-6.1086525E-4,TONIC,87b69e245e54
1776116970435,1507155786097732,9.734824,-0.16998832,-1.4030021,0.0,-0.009162978,0.002443461,TONIC,87b69e245e54
1776116970443,1507155794094739,9.7324295,-0.17717093,-1.4030021,0.0,-0.0067195175,0.002443461,TONIC,87b69e245e54
1776116970451,1507155802088284,9.734824,-0.19153613,-1.412579,6.1086525E-4,-0.0061086523,0.0030543262,TONIC,87b69e245e54
1776116970459,1507155810085753,9.7324295,-0.19871874,-1.3982137,-6.1086525E-4,-0.005497787,0.002443461,TONIC,87b69e245e54
1776116970467,1507155818079606,9.739613,-0.18435353,-1.400608,-6.1086525E-4,-0.0067195175,0.004886922,TONIC,87b69e245e54
1776116970475,1507155826105767,9.753978,-0.17717093,-1.4077905,0.0,-0.005497787,0.0030543262,TONIC,87b69e245e54
1776116970483,1507155834101543,9.753978,-0.18674773,-1.4077905,6.1086525E-4,-0.0061086523,0.004276057,TONIC,87b69e245e54
1776116970491,1507155842096935,9.734824,-0.20350714,-1.3934253,-6.1086525E-4,-0.004276057,0.0030543262,TONIC,87b69e245e54
1776116970499,1507155850094172,9.758766,-0.19153613,-1.4149733,-0.0012217305,-0.0030543262,0.0036651916,TONIC,87b69e245e54
1776116970507,1507155858090102,9.768343,-0.19153613,-1.4077905,0.0,-0.005497787,0.0018325958,TONIC,87b69e245e54
1776116970515,1507155866085802,9.746795,-0.20111294,-1.400608,0.0,-0.004276057,0.0018325958,TONIC,87b69e245e54
1776116970523,1507155874135424,9.768343,-0.19393034,-1.3910311,-6.1086525E-4,-0.002443461,0.0012217305,TONIC,87b69e245e54
1776116970531,1507155882075047,9.751583,-0.21787235,-1.4053963,-0.0012217305,-0.002443461,6.1086525E-4,TONIC,87b69e245e54
1776116970539,1507155890103054,9.7563715,-0.19153613,-1.400608,-0.0012217305,-0.0018325958,0.0,TONIC,87b69e245e54
1776116970547,1507155898099676,9.763555,-0.18914193,-1.4101849,-6.1086525E-4,-0.002443461,-0.0012217305,TONIC,87b69e245e54
1776116970555,1507155906092991,9.730036,-0.17717093,-1.400608,-0.0012217305,-0.0018325958,6.1086525E-4,TONIC,87b69e245e54
1776116970563,1507155914088690,9.737218,-0.19632454,-1.4053963,-6.1086525E-4,-0.0012217305,-6.1086525E-4,TONIC,87b69e245e54
1776116970571,1507155922083465,9.722853,-0.19632454,-1.4077905,-6.1086525E-4,-0.002443461,0.0,TONIC,87b69e245e54
1776116970579,1507155930082549,9.742006,-0.18914193,-1.4077905,-6.1086525E-4,-0.002443461,0.0012217305,TONIC,87b69e245e54
1776116970587,1507155938067710,9.737218,-0.19393034,-1.412579,-6.1086525E-4,-0.0036651916,-0.0012217305,TONIC,87b69e245e54
1776116970595,1507155946070563,9.727641,-0.18914193,-1.4149733,-6.1086525E-4,-0.002443461,6.1086525E-4,TONIC,87b69e245e54
1776116970603,1507155954096339,9.7324295,-0.18674773,-1.412579,6.1086525E-4,6.1086525E-4,-6.1086525E-4,TONIC,87b69e245e54
1776116970611,1507155962093654,9.751583,-0.18195933,-1.4173675,6.1086525E-4,0.0018325958,0.0,TONIC,87b69e245e54
1776116970619,1507155970143815,9.753978,-0.16519992,-1.4269443,0.0018325958,0.0,-6.1086525E-4,TONIC,87b69e245e54
1776116970627,1507155978083514,9.744401,-0.17956513,-1.42455,0.0,0.005497787,-6.1086525E-4,TONIC,87b69e245e54
1776116970635,1507155986110291,9.758766,-0.19871874,-1.4197617,6.1086525E-4,0.007330383,-6.1086525E-4,TONIC,87b69e245e54
1776116970642,1507155993757375,9.749189,-0.18195933,-1.4053963,6.1086525E-4,0.0067195175,-6.1086525E-4,TONIC,87b69e245e54
1776116970651,1507156002101997,9.739613,-0.18914193,-1.412579,0.0012217305,0.0067195175,0.0012217305,TONIC,87b69e245e54
1776116970659,1507156010121927,9.753978,-0.17477672,-1.4030021,0.0012217305,0.004276057,-0.0012217305,TONIC,87b69e245e54
1776116970667,1507156018093396,9.758766,-0.17717093,-1.3838485,0.002443461,0.004886922,-6.1086525E-4,TONIC,87b69e245e54
1776116970675,1507156026089018,9.763555,-0.18435353,-1.4077905,0.0012217305,0.004276057,-0.0012217305,TONIC,87b69e245e54
1776116970683,1507156034083179,9.744401,-0.17956513,-1.4101849,0.0012217305,0.005497787,-6.1086525E-4,TONIC,87b69e245e54
1776116970691,1507156042110647,9.76116,-0.19153613,-1.4053963,0.0,0.007330383,0.0,TONIC,87b69e245e54
1776116970699,1507156050105116,9.758766,-0.19632454,-1.4149733,6.1086525E-4,0.005497787,6.1086525E-4,TONIC,87b69e245e54
1776116970707,1507156058101969,9.7563715,-0.20111294,-1.3958195,6.1086525E-4,0.0061086523,-6.1086525E-4,TONIC,87b69e245e54
1776116970715,1507156066095899,9.746795,-0.17956513,-1.376666,0.0,0.0067195175,0.0,TONIC,87b69e245e54
1776116970723,1507156074091829,9.739613,-0.18435353,-1.3838485,0.0012217305,0.007941248,-0.0012217305,TONIC,87b69e245e54
1776116970731,1507156082088221,9.744401,-0.18674773,-1.3910311,0.0012217305,0.008552114,-6.1086525E-4,TONIC,87b69e245e54
1776116970739,1507156090108536,9.7563715,-0.18674773,-1.3982137,0.0,0.007330383,-0.0012217305,TONIC,87b69e245e54
1776116970747,1507156098078697,9.758766,-0.18195933,-1.3862427,0.0012217305,0.0067195175,-0.0018325958,TONIC,87b69e245e54
1776116970755,1507156106075934,9.730036,-0.20350714,-1.3814543,-6.1086525E-4,0.004886922,-0.0012217305,TONIC,87b69e245e54
1776116970763,1507156114071249,9.739613,-0.19393034,-1.3910311,-0.002443461,0.002443461,-6.1086525E-4,TONIC,87b69e245e54
1776116970771,1507156122151948,9.742006,-0.18914193,-1.3934253,0.0,0.004276057,-0.0018325958,TONIC,87b69e245e54
1776116970779,1507156130093725,9.744401,-0.18195933,-1.400608,-6.1086525E-4,0.005497787,-6.1086525E-4,TONIC,87b69e245e54
1776116970787,1507156138088578,9.744401,-0.1604115,-1.4053963,-6.1086525E-4,0.002443461,-0.0012217305,TONIC,87b69e245e54
1776116970795,1507156146082968,9.753978,-0.18195933,-1.388637,0.0,0.0030543262,-6.1086525E-4,TONIC,87b69e245e54
1776116970803,1507156154108899,9.742006,-0.17477672,-1.3982137,-6.1086525E-4,0.0030543262,6.1086525E-4,TONIC,87b69e245e54
1776116970811,1507156162104829,9.763555,-0.1604115,-1.3934253,-6.1086525E-4,0.0030543262,-6.1086525E-4,TONIC,87b69e245e54
1776116970819,1507156170101528,9.7563715,-0.1604115,-1.400608,-0.0012217305,0.004276057,0.0012217305,TONIC,87b69e245e54
1776116970827,1507156178151920,9.737218,-0.16759412,-1.3910311,-0.0012217305,0.0030543262,0.0,TONIC,87b69e245e54
1776116970835,1507156186092234,9.742006,-0.16998832,-1.3838485,-0.0030543262,-0.0018325958,0.0012217305,TONIC,87b69e245e54
1776116970843,1507156194056549,9.739613,-0.19393034,-1.3814543,-0.002443461,0.0,0.0030543262,TONIC,87b69e245e54
1776116970851,1507156202082171,9.739613,-0.20350714,-1.400608,-0.0018325958,-6.1086525E-4,0.0030543262,TONIC,87b69e245e54
1776116970858,1507156209679102,9.739613,-0.19393034,-1.4030021,-0.0018325958,0.0,0.002443461,TONIC,87b69e245e54
1776116970867,1507156218106186,9.751583,-0.21787235,-1.4053963,-6.1086525E-4,6.1086525E-4,0.0030543262,TONIC,87b69e245e54
1776116970875,1507156226100885,9.763555,-0.20829555,-1.3910311,-6.1086525E-4,6.1086525E-4,0.0012217305,TONIC,87b69e245e54
1776116970883,1507156234151661,9.770737,-0.19393034,-1.4030021,6.1086525E-4,0.0036651916,6.1086525E-4,TONIC,87b69e245e54
1776116970891,1507156242092976,9.7803135,-0.21308395,-1.3910311,0.0,0.0030543262,6.1086525E-4,TONIC,87b69e245e54
1776116970899,1507156250089829,9.775525,-0.21547815,-1.3862427,6.1086525E-4,0.002443461,6.1086525E-4,TONIC,87b69e245e54
1776116970907,1507156258083990,9.753978,-0.21068975,-1.388637,6.1086525E-4,0.0067195175,-6.1086525E-4,TONIC,87b69e245e54
1776116970914,1507156265758535,9.749189,-0.20350714,-1.3838485,6.1086525E-4,0.002443461,-0.0012217305,TONIC,87b69e245e54
1776116970923,1507156274103465,9.737218,-0.18674773,-1.3862427,6.1086525E-4,0.002443461,-0.002443461,TONIC,87b69e245e54
1776116970931,1507156282099396,9.734824,-0.18435353,-1.3910311,0.0012217305,6.1086525E-4,-0.0012217305,TONIC,87b69e245e54
1776116970939,1507156290096326,9.742006,-0.21547815,-1.400608,0.0012217305,0.0,-0.0018325958,TONIC,87b69e245e54
1776116970947,1507156298091410,9.737218,-0.19871874,-1.4053963,6.1086525E-4,-6.1086525E-4,0.0,TONIC,87b69e245e54
1776116970954,1507156305736723,9.739613,-0.19393034,-1.412579,0.0,0.0,-6.1086525E-4,TONIC,87b69e245e54
1776116970963,1507156314107808,9.734824,-0.19871874,-1.3838485,0.0,6.1086525E-4,-6.1086525E-4,TONIC,87b69e245e54
1776116970971,1507156322077892,9.765948,-0.21068975,-1.3814543,0.0030543262,0.0018325958,0.0,TONIC,87b69e245e54
1776116970979,1507156330103745,9.758766,-0.19632454,-1.3862427,6.1086525E-4,0.002443461,-0.0030543262,TONIC,87b69e245e54
1776116970987,1507156338100137,9.765948,-0.20111294,-1.400608,0.0018325958,0.0018325958,-0.0030543262,TONIC,87b69e245e54
1776116970995,1507156346120759,9.76116,-0.19632454,-1.3958195,6.1086525E-4,0.0018325958,-0.004276057,TONIC,87b69e245e54
1776116971003,1507156354092689,9.763555,-0.17717093,-1.4030021,0.002443461,0.0018325958,-0.004886922,TONIC,87b69e245e54
1776116971011,1507156362056389,9.751583,-0.1604115,-1.400608,6.1086525E-4,0.0012217305,-0.0061086523,TONIC,87b69e245e54
1776116971019,1507156370083856,9.734824,-0.15083471,-1.3838485,0.0012217305,0.0,-0.004886922,TONIC,87b69e245e54
1776116971026,1507156377729633,9.730036,-0.1412579,-1.3814543,0.0,-0.0012217305,-0.0018325958,TONIC,87b69e245e54
1776116971035,1507156386104101,9.718064,-0.1316811,-1.3814543,-6.1086525E-4,-0.0018325958,-0.002443461,TONIC,87b69e245e54
1776116971043,1507156394125031,9.7324295,-0.15801731,-1.3982137,6.1086525E-4,-0.0012217305,-0.0012217305,TONIC,87b69e245e54
1776116971051,1507156402096115,9.744401,-0.16519992,-1.3958195,-0.0036651916,-0.005497787,0.0018325958,TONIC,87b69e245e54
1776116971058,1507156409660507,9.746795,-0.19632454,-1.4053963,-6.1086525E-4,-0.0012217305,0.004886922,TONIC,87b69e245e54
1776116971067,1507156418086591,9.739613,-0.18674773,-1.388637,0.0,-0.002443461,0.004276057,TONIC,87b69e245e54
1776116971075,1507156426083521,9.746795,-0.18195933,-1.376666,-0.0030543262,-0.002443461,0.004886922,TONIC,87b69e245e54
1776116971083,1507156434107912,9.7563715,-0.16519992,-1.3790601,-6.1086525E-4,-0.0036651916,0.0030543262,TONIC,87b69e245e54
1776116971091,1507156442105458,9.753978,-0.16519992,-1.3790601,-0.0018325958,-0.007330383,0.002443461,TONIC,87b69e245e54
1776116971098,1507156449577080,9.737218,-0.17238252,-1.4030021,-0.0012217305,-0.0067195175,0.002443461,TONIC,87b69e245e54
1776116971107,1507156458094395,9.751583,-0.18435353,-1.412579,-0.0012217305,-0.004276057,0.005497787,TONIC,87b69e245e54
1776116971115,1507156466092171,9.7563715,-0.18914193,-1.3958195,-6.1086525E-4,6.1086525E-4,0.004886922,TONIC,87b69e245e54
1776116971122,1507156473739332,9.746795,-0.17956513,-1.3742718,0.0,0.0012217305,0.002443461,TONIC,87b69e245e54
1776116971131,1507156482082108,9.749189,-0.18674773,-1.364695,0.0018325958,0.0,0.0018325958,TONIC,87b69e245e54
1776116971139,1507156490109115,9.7563715,-0.18435353,-1.3694834,0.0,-0.002443461,0.0012217305,TONIC,87b69e245e54
1776116971147,1507156498102738,9.758766,-0.18674773,-1.400608,0.0,-0.005497787,0.0036651916,TONIC,87b69e245e54
1776116971155,1507156506098976,9.76116,-0.22026655,-1.388637,-0.0012217305,-0.009162978,0.0036651916,TONIC,87b69e245e54
1776116971163,1507156514094444,9.76116,-0.20590134,-1.3838485,-0.0018325958,-0.01038471,0.002443461,TONIC,87b69e245e54
1776116971171,1507156522090682,9.739613,-0.18914193,-1.3934253,-0.002443461,-0.008552114,0.0030543262,TONIC,87b69e245e54
1776116971179,1507156530088304,9.749189,-0.18435353,-1.388637,-0.002443461,-0.01038471,0.0012217305,TONIC,87b69e245e54
1776116971187,1507156538081542,9.753978,-0.18435353,-1.4030021,-0.0012217305,-0.012217305,0.002443461,TONIC,87b69e245e54
1776116971195,1507156546133165,9.727641,-0.19393034,-1.400608,-6.1086525E-4,-0.009162978,0.0018325958,TONIC,87b69e245e54
1776116971203,1507156554074095,9.742006,-0.20350714,-1.4053963,-0.0018325958,-0.01038471,0.0012217305,TONIC,87b69e245e54
1776116971211,1507156562099948,9.751583,-0.20590134,-1.4077905,0.0,-0.010995574,0.002443461,TONIC,87b69e245e54
1776116971219,1507156570150493,9.749189,-0.19871874,-1.4053963,-0.0012217305,-0.007941248,0.0018325958,TONIC,87b69e245e54
1776116971227,1507156578090116,9.7324295,-0.19153613,-1.4293385,-0.002443461,-0.009162978,6.1086525E-4,TONIC,87b69e245e54
1776116971235,1507156586087046,9.7324295,-0.20111294,-1.4341269,-6.1086525E-4,-0.007330383,6.1086525E-4,TONIC,87b69e245e54
1776116971243,1507156594082745,9.751583,-0.19632454,-1.4077905,6.1086525E-4,-0.0061086523,0.0018325958,TONIC,87b69e245e54
1776116971251,1507156602107443,9.770737,-0.21547815,-1.4221559,-0.0012217305,-0.002443461,0.0,TONIC,87b69e245e54
1776116971259,1507156610128604,9.751583,-0.22505496,-1.412579,6.1086525E-4,-0.0012217305,-6.1086525E-4,TONIC,87b69e245e54
1776116971267,1507156618069534,9.7563715,-0.20350714,-1.3982137,0.0036651916,0.0018325958,-0.002443461,TONIC,87b69e245e54
1776116971274,1507156625581618,9.753978,-0.22026655,-1.4030021,-0.002443461,0.0012217305,-0.0018325958,TONIC,87b69e245e54
1776116971283,1507156634089933,9.751583,-0.20590134,-1.4030021,-0.0012217305,6.1086525E-4,-0.002443461,TONIC,87b69e245e54
1776116971291,1507156642085863,9.744401,-0.18674773,-1.4077905,-0.0018325958,6.1086525E-4,-0.0036651916,TONIC,87b69e245e54
1776116971298,1507156649597870,9.7324295,-0.18195933,-1.4197617,-0.0012217305,0.0018325958,-0.0030543262,TONIC,87b69e245e54
1776116971306,1507156657551800,9.7324295,-0.17238252,-1.400608,0.0,0.0018325958,-0.002443461,TONIC,87b69e245e54
1776116971314,1507156665528115,9.7563715,-0.16280572,-1.4101849,-6.1086525E-4,0.0067195175,-0.0018325958,TONIC,87b69e245e54
1776116971323,1507156674099430,9.739613,-0.18674773,-1.4030021,6.1086525E-4,0.005497787,-0.0030543262,TONIC,87b69e245e54
1776116971331,1507156682095514,9.734824,-0.15562311,-1.4173675,-6.1086525E-4,0.0067195175,-0.002443461,TONIC,87b69e245e54
1776116971338,1507156689658905,9.742006,-0.1604115,-1.388637,-6.1086525E-4,0.007941248,-6.1086525E-4,TONIC,87b69e245e54
1776116971347,1507156698085066,9.734824,-0.15801731,-1.3982137,-0.0012217305,0.0067195175,-6.1086525E-4,TONIC,87b69e245e54
1776116971355,1507156706080996,9.734824,-0.16280572,-1.3862427,-6.1086525E-4,0.007330383,0.0018325958,TONIC,87b69e245e54
1776116971363,1507156714106849,9.744401,-0.16759412,-1.4077905,0.0018325958,0.007330383,0.0018325958,TONIC,87b69e245e54
1776116971371,1507156722158626,9.751583,-0.17956513,-1.400608,0.0,0.008552114,6.1086525E-4,TONIC,87b69e245e54
1776116971379,1507156730100787,9.744401,-0.16998832,-1.4030021,-6.1086525E-4,0.0061086523,0.002443461,TONIC,87b69e245e54
1776116971387,1507156738094024,9.775525,-0.17477672,-1.4030021,6.1086525E-4,0.007941248,0.0030543262,TONIC,87b69e245e54
1776116971395,1507156746089416,9.744401,-0.19153613,-1.3838485,0.0,0.009162978,0.0030543262,TONIC,87b69e245e54
1776116971403,1507156754087500,9.746795,-0.19632454,-1.3910311,-0.0012217305,0.0061086523,0.0036651916,TONIC,87b69e245e54
1776116971411,1507156762136738,9.76116,-0.17717093,-1.3742718,0.0,0.005497787,0.0036651916,TONIC,87b69e245e54
1776116971419,1507156770078283,9.7563715,-0.16998832,-1.3814543,-0.0018325958,0.0030543262,0.0030543262,TONIC,87b69e245e54
1776116971427,1507156778074675,9.753978,-0.20111294,-1.3958195,-6.1086525E-4,0.0018325958,0.002443461,TONIC,87b69e245e54
1776116971435,1507156786097759,9.768343,-0.18914193,-1.400608,-6.1086525E-4,0.0012217305,0.002443461,TONIC,87b69e245e54
1776116971443,1507156794093766,9.753978,-0.20111294,-1.3910311,6.1086525E-4,0.0018325958,0.002443461,TONIC,87b69e245e54
1776116971451,1507156802090619,9.744401,-0.21787235,-1.3958195,-6.1086525E-4,6.1086525E-4,0.0018325958,TONIC,87b69e245e54
1776116971459,1507156810088241,9.753978,-0.20350714,-1.3814543,6.1086525E-4,-6.1086525E-4,6.1086525E-4,TONIC,87b69e245e54
1776116971466,1507156817556863,9.765948,-0.19871874,-1.3934253,6.1086525E-4,0.0,6.1086525E-4,TONIC,87b69e245e54
1776116971475,1507156826107254,9.739613,-0.20829555,-1.3910311,0.0018325958,0.0,0.0018325958,TONIC,87b69e245e54
1776116971483,1507156834101723,9.773131,-0.18914193,-1.3982137,6.1086525E-4,-6.1086525E-4,0.0,TONIC,87b69e245e54
1776116971491,1507156842097192,9.751583,-0.18435353,-1.3814543,6.1086525E-4,6.1086525E-4,-6.1086525E-4,TONIC,87b69e245e54
1776116971499,1507156850094737,9.765948,-0.20111294,-1.3862427,6.1086525E-4,0.0,-0.0012217305,TONIC,87b69e245e54
1776116971507,1507156858089206,9.751583,-0.19153613,-1.3958195,-6.1086525E-4,-0.0018325958,-6.1086525E-4,TONIC,87b69e245e54
1776116971515,1507156866140828,9.746795,-0.18435353,-1.3838485,0.0,-0.0012217305,-6.1086525E-4,TONIC,87b69e245e54
1776116971523,1507156874081143,9.737218,-0.17717093,-1.376666,0.0036651916,-6.1086525E-4,0.0,TONIC,87b69e245e54
1776116971531,1507156882105842,9.749189,-0.18435353,-1.376666,-6.1086525E-4,-0.002443461,6.1086525E-4,TONIC,87b69e245e54
1776116971538,1507156889672003,9.751583,-0.18435353,-1.3958195,0.0,-0.004276057,6.1086525E-4,TONIC,87b69e245e54
1776116971547,1507156898123087,9.749189,-0.17477672,-1.4030021,-0.002443461,-0.0018325958,0.0012217305,TONIC,87b69e245e54
1776116971555,1507156906093863,9.749189,-0.18914193,-1.4030021,-6.1086525E-4,-0.002443461,0.0018325958,TONIC,87b69e245e54
1776116971563,1507156914090716,9.727641,-0.18914193,-1.4197617,-0.0018325958,-0.0012217305,0.002443461,TONIC,87b69e245e54
1776116971571,1507156922086108,9.758766,-0.17956513,-1.3934253,-0.0018325958,-6.1086525E-4,0.0030543262,TONIC,87b69e245e54
1776116971579,1507156930082192,9.746795,-0.18914193,-1.3934253,-0.002443461,-6.1086525E-4,0.0036651916,TONIC,87b69e245e54
1776116971587,1507156938107122,9.751583,-0.20111294,-1.3982137,-0.0018325958,-0.002443461,0.0030543262,TONIC,87b69e245e54
1776116971595,1507156946101590,9.765948,-0.20111294,-1.3862427,-0.0018325958,-0.002443461,0.0018325958,TONIC,87b69e245e54
1776116971603,1507156954123059,9.76116,-0.20590134,-1.3934253,-0.002443461,-0.0036651916,0.0036651916,TONIC,87b69e245e54
1776116971611,1507156962094451,9.742006,-0.21547815,-1.3742718,-0.002443461,-0.004276057,0.0012217305,TONIC,87b69e245e54
1776116971619,1507156970090458,9.744401,-0.19393034,-1.3934253,-0.0036651916,-0.004886922,-0.0018325958,TONIC,87b69e245e54
1776116971627,1507156978086157,9.744401,-0.19632454,-1.388637,-0.0030543262,-0.004276057,0.0012217305,TONIC,87b69e245e54
1776116971635,1507156986081318,9.76116,-0.18914193,-1.3958195,-0.002443461,-0.0061086523,0.0018325958,TONIC,87b69e245e54
1776116971643,1507156994107786,9.7563715,-0.18195933,-1.4030021,-6.1086525E-4,-0.0036651916,6.1086525E-4,TONIC,87b69e245e54
1776116971651,1507157002101640,9.753978,-0.18914193,-1.4101849,0.0,-0.0036651916,0.0012217305,TONIC,87b69e245e54
1776116971659,1507157010098877,9.753978,-0.19632454,-1.3958195,-6.1086525E-4,-0.0036651916,6.1086525E-4,TONIC,87b69e245e54
1776116971667,1507157018092731,9.753978,-0.18674773,-1.4077905,0.0,-0.0030543262,0.0012217305,TONIC,87b69e245e54
1776116971675,1507157026088430,9.768343,-0.19871874,-1.4173675,0.0,0.0018325958,-6.1086525E-4,TONIC,87b69e245e54
1776116971683,1507157034085591,9.765948,-0.21547815,-1.3742718,6.1086525E-4,-0.0012217305,-0.0018325958,TONIC,87b69e245e54
1776116971691,1507157042112367,9.775525,-0.20111294,-1.3958195,6.1086525E-4,6.1086525E-4,-0.0012217305,TONIC,87b69e245e54
1776116971699,1507157050107835,9.751583,-0.19393034,-1.4030021,0.0,-0.002443461,-0.0012217305,TONIC,87b69e245e54
1776116971707,1507157058101995,9.753978,-0.19393034,-1.3910311,-6.1086525E-4,-0.002443461,-0.0012217305,TONIC,87b69e245e54
1776116971715,1507157066097079,9.749189,-0.18435353,-1.3862427,0.0012217305,-0.004276057,-0.0018325958,TONIC,87b69e245e54
1776116971723,1507157074092394,9.7563715,-0.17238252,-1.4077905,6.1086525E-4,-0.004276057,-0.0030543262,TONIC,87b69e245e54
1776116971731,1507157082088709,9.749189,-0.17477672,-1.4030021,0.0012217305,-0.004276057,-0.0012217305,TONIC,87b69e245e54
1776116971739,1507157090086562,9.749189,-0.17238252,-1.3958195,0.0012217305,-0.0030543262,-0.0018325958,TONIC,87b69e245e54
1776116971747,1507157098112107,9.742006,-0.18195933,-1.3934253,6.1086525E-4,0.0,0.0,TONIC,87b69e245e54
1776116971755,1507157106107268,9.749189,-0.17956513,-1.3958195,6.1086525E-4,-0.0018325958,0.0,TONIC,87b69e245e54
1776116971763,1507157114102045,9.734824,-0.18195933,-1.376666,-6.1086525E-4,-0.0012217305,0.0,TONIC,87b69e245e54
1776116971771,1507157122098052,9.720459,-0.17477672,-1.400608,0.0012217305,-0.002443461,-0.0012217305,TONIC,87b69e245e54
1776116971779,1507157130093751,9.744401,-0.16280572,-1.3814543,-6.1086525E-4,-0.0030543262,0.0,TONIC,87b69e245e54
1776116971787,1507157138087527,9.720459,-0.18435353,-1.400608,-0.002443461,-0.0036651916,6.1086525E-4,TONIC,87b69e245e54
1776116971795,1507157146083611,9.739613,-0.16280572,-1.4149733,-0.0012217305,-0.002443461,6.1086525E-4,TONIC,87b69e245e54
1776116971803,1507157154135310,9.758766,-0.19153613,-1.412579,-0.0012217305,-0.0018325958,0.0018325958,TONIC,87b69e245e54
1776116971811,1507157162078087,9.734824,-0.16519992,-1.4077905,0.0018325958,0.0018325958,0.0018325958,TONIC,87b69e245e54
1776116971818,1507157169673786,9.749189,-0.16998832,-1.3910311,-0.0012217305,0.0012217305,0.002443461,TONIC,87b69e245e54
1776116971827,1507157178096793,9.730036,-0.16519992,-1.4197617,0.0,0.0061086523,0.0018325958,TONIC,87b69e245e54
1776116971834,1507157185578030,9.739613,-0.18914193,-1.4077905,-0.002443461,0.0030543262,0.0036651916,TONIC,87b69e245e54
1776116971843,1507157194113422,9.76116,-0.17477672,-1.4053963,-0.0018325958,0.004276057,0.0030543262,TONIC,87b69e245e54
1776116971851,1507157202084276,9.753978,-0.20829555,-1.3814543,6.1086525E-4,0.0061086523,0.002443461,TONIC,87b69e245e54
1776116971859,1507157210112283,9.737218,-0.18435353,-1.4077905,-0.0012217305,0.004276057,0.0030543262,TONIC,87b69e245e54
1776116971866,1507157217590981,9.763555,-0.19393034,-1.4221559,-0.0018325958,0.0061086523,0.0030543262,TONIC,87b69e245e54
1776116971874,1507157225607373,9.751583,-0.19632454,-1.3982137,-0.002443461,0.008552114,0.002443461,TONIC,87b69e245e54
1776116971883,1507157234095919,9.763555,-0.20590134,-1.4030021,-0.0018325958,0.008552114,0.0036651916,TONIC,87b69e245e54
1776116971891,1507157242092541,9.744401,-0.20350714,-1.3934253,-6.1086525E-4,0.008552114,0.0018325958,TONIC,87b69e245e54
1776116971898,1507157249627394,9.768343,-0.20111294,-1.388637,-6.1086525E-4,0.008552114,0.0012217305,TONIC,87b69e245e54
1776116971907,1507157258084556,9.7563715,-0.19632454,-1.3838485,-0.0012217305,0.007941248,0.0018325958,TONIC,87b69e245e54
1776116971915,1507157266110716,9.76116,-0.19153613,-1.3623008,0.0,0.005497787,0.0018325958,TONIC,87b69e245e54
1776116971923,1507157274161185,9.763555,-0.19632454,-1.3623008,-0.0012217305,0.0061086523,0.002443461,TONIC,87b69e245e54
1776116971931,1507157282102499,9.753978,-0.20590134,-1.3599066,-6.1086525E-4,0.0030543262,0.0,TONIC,87b69e245e54
1776116971938,1507157289666121,9.753978,-0.20350714,-1.3790601,-0.0012217305,6.1086525E-4,0.0,TONIC,87b69e245e54
1776116971947,1507157298093513,9.749189,-0.19393034,-1.3790601,6.1086525E-4,-0.0012217305,6.1086525E-4,TONIC,87b69e245e54
1776116971955,1507157306087674,9.742006,-0.19153613,-1.4030021,-0.0018325958,-0.004276057,0.0,TONIC,87b69e245e54
1776116971963,1507157314108681,9.744401,-0.20111294,-1.376666,-6.1086525E-4,-0.0030543262,-0.0012217305,TONIC,87b69e245e54
1776116971971,1507157322079380,9.737218,-0.19632454,-1.376666,0.0012217305,-0.0030543262,-0.0012217305,TONIC,87b69e245e54
1776116971979,1507157330106848,9.749189,-0.19871874,-1.3838485,0.0,-0.004886922,-6.1086525E-4,TONIC,87b69e245e54
1776116971987,1507157338102240,9.746795,-0.19153613,-1.3814543,-6.1086525E-4,-0.0036651916,-0.0012217305,TONIC,87b69e245e54
1776116971995,1507157346121632,9.737218,-0.17477672,-1.3814543,-0.0012217305,-0.0036651916,0.0,TONIC,87b69e245e54
1776116972003,1507157354093254,9.744401,-0.17477672,-1.388637,-0.0012217305,-0.005497787,-0.0018325958,TONIC,87b69e245e54
1776116972011,1507157362088646,9.765948,-0.18435353,-1.4030021,0.0012217305,-0.0030543262,-6.1086525E-4,TONIC,87b69e245e54
1776116972019,1507157370082884,9.7563715,-0.17238252,-1.400608,-6.1086525E-4,-0.0012217305,-0.0018325958,TONIC,87b69e245e54
1776116972027,1507157378078814,9.749189,-0.19153613,-1.4053963,0.0018325958,0.0018325958,0.0,TONIC,87b69e245e54
1776116972035,1507157386160667,9.746795,-0.15562311,-1.3982137,6.1086525E-4,0.0036651916,6.1086525E-4,TONIC,87b69e245e54
1776116972043,1507157394100135,9.749189,-0.17477672,-1.3910311,0.0012217305,0.0061086523,0.0012217305,TONIC,87b69e245e54
1776116972051,1507157402067527,9.730036,-0.18435353,-1.376666,-0.0012217305,0.002443461,0.002443461,TONIC,87b69e245e54
1776116972059,1507157410117073,9.746795,-0.17956513,-1.3862427,0.0,0.004276057,0.0018325958,TONIC,87b69e245e54
1776116972067,1507157418087156,9.742006,-0.17238252,-1.3838485,6.1086525E-4,0.002443461,0.0018325958,TONIC,87b69e245e54
1776116972075,1507157426084394,9.734824,-0.18674773,-1.3742718,-0.0018325958,-0.0012217305,0.0012217305,TONIC,87b69e245e54
1776116972083,1507157434110555,9.742006,-0.17956513,-1.3982137,0.0,0.0,0.0018325958,TONIC,87b69e245e54
1776116972091,1507157442104178,9.768343,-0.17717093,-1.4053963,0.0,0.0012217305,0.0012217305,TONIC,87b69e245e54
1776116972099,1507157450103569,9.765948,-0.18674773,-1.388637,0.0,0.004276057,0.0,TONIC,87b69e245e54
1776116972107,1507157458095884,9.76116,-0.19632454,-1.3934253,0.0018325958,0.007941248,-6.1086525E-4,TONIC,87b69e245e54
1776116972115,1507157466091199,9.749189,-0.17238252,-1.3790601,-6.1086525E-4,0.005497787,0.0018325958,TONIC,87b69e245e54
1776116972123,1507157474089359,9.758766,-0.18674773,-1.376666,0.0,0.0067195175,6.1086525E-4,TONIC,87b69e245e54
1776116972131,1507157482084443,9.763555,-0.18914193,-1.3862427,0.0,0.004886922,6.1086525E-4,TONIC,87b69e245e54
1776116972139,1507157490164758,9.739613,-0.18914193,-1.3790601,-6.1086525E-4,0.005497787,-6.1086525E-4,TONIC,87b69e245e54
1776116972147,1507157498104227,9.763555,-0.20111294,-1.376666,-0.0018325958,0.004276057,-0.0012217305,TONIC,87b69e245e54
1776116972155,1507157506099233,9.744401,-0.18674773,-1.388637,-6.1086525E-4,0.0036651916,6.1086525E-4,TONIC,87b69e245e54
1776116972163,1507157514027317,9.765948,-0.19153613,-1.364695,6.1086525E-4,0.005497787,0.0012217305,TONIC,87b69e245e54
1776116972171,1507157522093093,9.737218,-0.19393034,-1.3862427,6.1086525E-4,0.004276057,0.0018325958,TONIC,87b69e245e54
1776116972179,1507157530088561,9.730036,-0.16759412,-1.3838485,0.0,0.0012217305,6.1086525E-4,TONIC,87b69e245e54
1776116972186,1507157537731261,9.749189,-0.18195933,-1.3910311,-0.0012217305,0.0,6.1086525E-4,TONIC,87b69e245e54
1776116972195,1507157546109499,9.7324295,-0.17956513,-1.376666,0.0018325958,0.002443461,0.0012217305,TONIC,87b69e245e54
1776116972202,1507157553753121,9.763555,-0.16998832,-1.3814543,0.0018325958,0.002443461,0.0012217305,TONIC,87b69e245e54
1776116972211,1507157562099589,9.751583,-0.17956513,-1.3670892,0.0012217305,0.0012217305,0.0012217305,TONIC,87b69e245e54
1776116972219,1507157570120827,9.765948,-0.18195933,-1.3814543,6.1086525E-4,0.0,6.1086525E-4,TONIC,87b69e245e54
1776116972227,1507157578091373,9.765948,-0.18914193,-1.3742718,0.0012217305,0.0,0.002443461,TONIC,87b69e245e54
1776116972235,1507157586111995,9.753978,-0.17717093,-1.3670892,-6.1086525E-4,-6.1086525E-4,0.0012217305,TONIC,87b69e245e54
1776116972243,1507157594081848,9.751583,-0.19632454,-1.376666,6.1086525E-4,0.0018325958,0.0018325958,TONIC,87b69e245e54
1776116972251,1507157602108855,9.744401,-0.19393034,-1.3623008,-0.0012217305,0.0,0.0012217305,TONIC,87b69e245e54
1776116972259,1507157610159939,9.758766,-0.20590134,-1.3790601,-6.1086525E-4,-0.002443461,0.0012217305,TONIC,87b69e245e54
1776116972267,1507157618100639,9.746795,-0.20350714,-1.3623008,-0.0018325958,-0.004886922,0.0012217305,TONIC,87b69e245e54
1776116972275,1507157626064569,9.76116,-0.20111294,-1.3814543,-0.002443461,-0.0067195175,0.0018325958,TONIC,87b69e245e54
1776116972283,1507157634060576,9.770737,-0.22026655,-1.3790601,-0.002443461,-0.0067195175,6.1086525E-4,TONIC,87b69e245e54
1776116972291,1507157642087660,9.7803135,-0.19393034,-1.3958195,0.0,-0.0061086523,0.0012217305,TONIC,87b69e245e54
1776116972299,1507157650137897,9.749189,-0.19632454,-1.376666,-6.1086525E-4,-0.007330383,0.0,TONIC,87b69e245e54
1776116972307,1507157658077904,9.751583,-0.19871874,-1.3742718,-6.1086525E-4,-0.007941248,-6.1086525E-4,TONIC,87b69e245e54
1776116972314,1507157665527987,9.727641,-0.19871874,-1.3790601,-6.1086525E-4,-0.010995574,-6.1086525E-4,TONIC,87b69e245e54
1776116972323,1507157674101226,9.742006,-0.20829555,-1.3814543,-0.0036651916,-0.013439035,-0.0012217305,TONIC,87b69e245e54
1776116972331,1507157682095156,9.751583,-0.20590134,-1.3982137,-6.1086525E-4,-0.01160644,-6.1086525E-4,TONIC,87b69e245e54
1776116972339,1507157690093317,9.749189,-0.20590134,-1.3958195,0.0,-0.01282817,0.0,TONIC,87b69e245e54
1776116972347,1507157698111709,9.737218,-0.20111294,-1.4173675,-6.1086525E-4,-0.010995574,-0.0018325958,TONIC,87b69e245e54
1776116972355,1507157706082485,9.746795,-0.19632454,-1.4077905,-0.004276057,-0.01282817,-0.0018325958,TONIC,87b69e245e54
1776116972363,1507157714108107,9.758766,-0.19871874,-1.412579,-6.1086525E-4,-0.008552114,-6.1086525E-4,TONIC,87b69e245e54
1776116972371,1507157722104038,9.7563715,-0.21547815,-1.400608,-0.0012217305,-0.0061086523,-6.1086525E-4,TONIC,87b69e245e54
1776116972379,1507157730102197,9.7563715,-0.19632454,-1.400608,-6.1086525E-4,-0.0030543262,0.0,TONIC,87b69e245e54
1776116972387,1507157738096435,9.765948,-0.18674773,-1.400608,0.0,-0.002443461,-6.1086525E-4,TONIC,87b69e245e54
1776116972395,1507157746092058,9.749189,-0.18674773,-1.3982137,6.1086525E-4,-0.0012217305,-0.002443461,TONIC,87b69e245e54
1776116972403,1507157754085911,9.734824,-0.17477672,-1.3910311,0.0,-6.1086525E-4,-0.0030543262,TONIC,87b69e245e54
1776116972411,1507157762113610,9.734824,-0.17238252,-1.4077905,-6.1086525E-4,6.1086525E-4,-0.002443461,TONIC,87b69e245e54
1776116972419,1507157770133309,9.763555,-0.14604631,-1.3862427,-0.0012217305,0.0012217305,-0.0018325958,TONIC,87b69e245e54
1776116972427,1507157778074316,9.722853,-0.1604115,-1.3934253,-6.1086525E-4,-0.0012217305,-0.0018325958,TONIC,87b69e245e54
1776116972435,1507157786101093,9.7324295,-0.16759412,-1.4101849,6.1086525E-4,0.0030543262,-6.1086525E-4,TONIC,87b69e245e54
1776116972443,1507157794094561,9.737218,-0.17717093,-1.4030021,-6.1086525E-4,0.004886922,0.002443461,TONIC,87b69e245e54
1776116972451,1507157802091491,9.742006,-0.17238252,-1.3958195,0.0012217305,0.004886922,0.0012217305,TONIC,87b69e245e54
1776116972458,1507157809596114,9.744401,-0.16280572,-1.4149733,0.0,0.005497787,0.0012217305,TONIC,87b69e245e54
1776116972467,1507157818137428,9.744401,-0.18914193,-1.3862427,0.002443461,0.008552114,0.002443461,TONIC,87b69e245e54
1776116972475,1507157826076820,9.775525,-0.18674773,-1.3862427,-0.0012217305,0.0030543262,0.002443461,TONIC,87b69e245e54
1776116972483,1507157834104827,9.753978,-0.19871874,-1.388637,-0.0018325958,0.002443461,0.002443461,TONIC,87b69e245e54
1776116972491,1507157842100219,9.744401,-0.18195933,-1.400608,-0.0012217305,0.0030543262,0.0030543262,TONIC,87b69e245e54
1776116972499,1507157850095841,9.7563715,-0.19632454,-1.400608,-0.0012217305,0.004276057,0.0036651916,TONIC,87b69e245e54
1776116972507,1507157858091540,9.753978,-0.16998832,-1.4030021,-0.0012217305,0.0030543262,0.0012217305,TONIC,87b69e245e54
1776116972515,1507157866111009,9.737218,-0.16759412,-1.3862427,-6.1086525E-4,0.004276057,0.002443461,TONIC,87b69e245e54
1776116972523,1507157874111631,9.753978,-0.18674773,-1.3982137,-6.1086525E-4,0.004886922,0.0018325958,TONIC,87b69e245e54
1776116972531,1507157882107023,9.749189,-0.18435353,-1.3790601,0.0,0.0036651916,0.002443461,TONIC,87b69e245e54
1776116972538,1507157889673183,9.744401,-0.21787235,-1.3790601,-0.0012217305,0.002443461,0.0036651916,TONIC,87b69e245e54
1776116972547,1507157898100576,9.758766,-0.22505496,-1.3814543,-0.0012217305,-6.1086525E-4,0.0030543262,TONIC,87b69e245e54
1776116972555,1507157906094967,9.7563715,-0.20829555,-1.3742718,-0.0018325958,-0.0012217305,0.0018325958,TONIC,87b69e245e54
1776116972563,1507157914089436,9.753978,-0.22026655,-1.388637,-6.1086525E-4,-0.0012217305,0.002443461,TONIC,87b69e245e54
1776116972571,1507157922086981,9.765948,-0.20111294,-1.3814543,-6.1086525E-4,-0.004276057,0.0,TONIC,87b69e245e54
1776116972579,1507157930082450,9.763555,-0.20111294,-1.3982137,-0.0012217305,-0.002443461,6.1086525E-4,TONIC,87b69e245e54
1776116972587,1507157938163072,9.753978,-0.18435353,-1.3838485,0.0,-0.002443461,-0.0018325958,TONIC,87b69e245e54
1776116972595,1507157946102464,9.753978,-0.18914193,-1.3934253,-0.0012217305,-0.0018325958,-6.1086525E-4,TONIC,87b69e245e54
1776116972603,1507157954101239,9.7563715,-0.18435353,-1.3814543,0.0018325958,-6.1086525E-4,-0.0018325958,TONIC,87b69e245e54
1776116972611,1507157962095400,9.739613,-0.20111294,-1.3934253,6.1086525E-4,-0.004276057,-0.0012217305,TONIC,87b69e245e54
1776116972619,1507157970145561,9.76116,-0.18195933,-1.3862427,0.0012217305,-0.005497787,-6.1086525E-4,TONIC,87b69e245e54
1776116972627,1507157978086106,9.749189,-0.19393034,-1.3862427,0.0,-0.004886922,-0.0012217305,TONIC,87b69e245e54
1776116972634,1507157985762113,9.76116,-0.18674773,-1.4077905,6.1086525E-4,-0.0030543262,-0.0018325958,TONIC,87b69e245e54
1776116972643,1507157994106736,9.749189,-0.18435353,-1.3958195,6.1086525E-4,-0.002443461,-0.0018325958,TONIC,87b69e245e54
1776116972651,1507158002103435,9.7324295,-0.19153613,-1.400608,0.0012217305,-0.0018325958,0.0,TONIC,87b69e245e54
1776116972659,1507158010099442,9.742006,-0.19632454,-1.400608,-6.1086525E-4,-0.0018325958,-0.0012217305,TONIC,87b69e245e54
1776116972667,1507158018149834,9.751583,-0.19393034,-1.3982137,0.0012217305,-0.002443461,0.0012217305,TONIC,87b69e245e54
1776116972675,1507158026059148,9.739613,-0.18914193,-1.3934253,-0.0012217305,-0.0018325958,0.0018325958,TONIC,87b69e245e54
1776116972683,1507158034086463,9.742006,-0.17956513,-1.4030021,-6.1086525E-4,0.0012217305,6.1086525E-4,TONIC,87b69e245e54
1776116972691,1507158042167162,9.734824,-0.19393034,-1.4030021,-6.1086525E-4,0.0,0.0,TONIC,87b69e245e54
1776116972699,1507158050079169,9.739613,-0.18674773,-1.4030021,6.1086525E-4,0.0018325958,0.0,TONIC,87b69e245e54
1776116972707,1507158058102177,9.737218,-0.20111294,-1.388637,0.0,0.0018325958,6.1086525E-4,TONIC,87b69e245e54
1776116972715,1507158066097953,9.742006,-0.18195933,-1.3862427,-6.1086525E-4,0.0018325958,-6.1086525E-4,TONIC,87b69e245e54
1776116972723,1507158074092729,9.734824,-0.19871874,-1.4077905,-0.0012217305,0.0018325958,-0.0012217305,TONIC,87b69e245e54
1776116972731,1507158082114582,9.751583,-0.18914193,-1.3910311,6.1086525E-4,6.1086525E-4,0.0,TONIC,87b69e245e54
1776116972739,1507158090085897,9.744401,-0.19393034,-1.3958195,-0.0012217305,0.0,0.0,TONIC,87b69e245e54
1776116972747,1507158098166904,9.76116,-0.19393034,-1.3982137,-6.1086525E-4,0.0012217305,6.1086525E-4,TONIC,87b69e245e54
1776116972755,1507158106075449,9.753978,-0.19871874,-1.3790601,-6.1086525E-4,6.1086525E-4,-6.1086525E-4,TONIC,87b69e245e54
1776116972763,1507158114003533,9.765948,-0.19871874,-1.400608,6.1086525E-4,0.0030543262,0.0018325958,TONIC,87b69e245e54
