# epoch_ms,event_ts_ns,AX,AY,AZ,GX,GY,GZ,label,sessionID
1776116912409,1507097760868665,9.528923,-0.14604631,-2.5761611,NaN,NaN,NaN,TONIC,858092540784
1776116912417,1507097768953661,9.519346,-0.15562311,-2.554613,0.0,-0.0012217305,0.0012217305,TONIC,858092540784
1776116912425,1507097776950581,9.502586,-0.15083471,-2.5570073,0.0,-0.0012217305,0.0012217305,TONIC,858092540784
1776116912433,1507097784945039,9.49301,-0.1388637,-2.552219,0.0,-0.0012217305,0.0012217305,TONIC,858092540784
1776116912441,1507097792941266,9.490616,-0.14604631,-2.5617957,0.0,-0.0012217305,0.0012217305,TONIC,858092540784
1776116912449,1507097800938879,9.502586,-0.1436521,-2.5474305,0.0,-0.0012217305,0.0012217305,TONIC,858092540784
1776116912457,1507097808933336,9.488221,-0.16759412,-2.5498247,0.0,-0.0012217305,0.0012217305,TONIC,858092540784
1776116912465,1507097816959410,9.500193,-0.14844051,-2.5450363,0.0,-0.0012217305,0.0012217305,TONIC,858092540784
1776116912474,1507097825009637,9.495404,-0.15562311,-2.5617957,0.0,-0.0012217305,0.0012217305,TONIC,858092540784
1776116912481,1507097832950557,9.531317,-0.14604631,-2.542642,0.0,-0.0012217305,0.0012217305,TONIC,858092540784
1776116912489,1507097840946785,9.49301,-0.1604115,-2.5617957,0.0,-0.0012217305,0.0012217305,TONIC,858092540784
1776116912497,1507097848996627,9.531317,-0.12449849,-2.5594015,0.0,-0.0012217305,0.0012217305,TONIC,858092540784
1776116912505,1507097856936086,9.526528,-0.11731588,-2.5330653,0.0,-0.0012217305,0.0012217305,TONIC,858092540784
1776116912513,1507097864933543,9.507375,-0.12210429,-2.528277,0.0,-0.0012217305,0.0012217305,TONIC,858092540784
1776116912522,1507097873013848,9.490616,-0.12449849,-2.5378537,0.0,-0.0012217305,0.0012217305,TONIC,858092540784
1776116912529,1507097880926153,9.497798,-0.1412579,-2.5258827,0.0,-0.0012217305,0.0012217305,TONIC,858092540784
1776116912537,1507097888949918,9.514558,-0.1340753,-2.528277,0.0,-0.0012217305,0.0012217305,TONIC,858092540784
1776116912545,1507097896944992,9.507375,-0.1412579,-2.528277,-6.1086525E-4,0.009162978,-0.0012217305,TONIC,858092540784
1776116912553,1507097904939757,9.495404,-0.1340753,-2.528277,-0.0012217305,0.007941248,6.1086525E-4,TONIC,858092540784
1776116912561,1507097912935139,9.514558,-0.12928689,-2.528277,-0.0012217305,0.007330383,0.0,TONIC,858092540784
1776116912569,1507097920932367,9.502586,-0.1388637,-2.5187001,0.0,0.005497787,-6.1086525E-4,TONIC,858092540784
1776116912577,1507097928957824,9.52174,-0.1340753,-2.516306,6.1086525E-4,0.0067195175,0.0012217305,TONIC,858092540784
1776116912585,1507097936953590,9.507375,-0.14604631,-2.5187001,0.0,0.004886922,0.004276057,TONIC,858092540784
1776116912593,1507097944950433,9.512163,-0.1364695,-2.516306,-6.1086525E-4,0.0061086523,0.0018325958,TONIC,858092540784
1776116912601,1507097952943968,9.514558,-0.1364695,-2.5187001,0.0,0.004886922,0.0030543262,TONIC,858092540784
1776116912609,1507097960942427,9.500193,-0.1340753,-2.5187001,0.0,0.0036651916,0.0018325958,TONIC,858092540784
1776116912617,1507097968935038,9.516952,-0.1412579,-2.5115175,-6.1086525E-4,0.002443461,0.0036651916,TONIC,858092540784
1776116912625,1507097976931650,9.507375,-0.14844051,-2.5210943,6.1086525E-4,0.0,0.0012217305,TONIC,858092540784
1776116912633,1507097984957263,9.497798,-0.1340753,-2.5139117,0.0012217305,0.0,0.002443461,TONIC,858092540784
1776116912641,1507097992953259,9.52174,-0.16759412,-2.5115175,0.0018325958,-6.1086525E-4,0.0018325958,TONIC,858092540784
1776116912649,1507098000949794,9.524135,-0.1412579,-2.516306,0.0012217305,-6.1086525E-4,0.0030543262,TONIC,858092540784
1776116912657,1507098008944329,9.514558,-0.1604115,-2.504335,0.0018325958,0.0,0.0018325958,TONIC,858092540784
1776116912665,1507098016940941,9.514558,-0.16998832,-2.4899697,0.0012217305,0.002443461,0.004276057,TONIC,858092540784
1776116912674,1507098025056861,9.528923,-0.17238252,-2.4995465,0.0012217305,0.0018325958,0.004886922,TONIC,858092540784
1776116912681,1507098032932242,9.5385,-0.18195933,-2.5091233,0.0,0.0,0.0036651916,TONIC,858092540784
1776116912689,1507098040959700,9.528923,-0.17477672,-2.4875755,0.0,-0.0018325958,0.0018325958,TONIC,858092540784
1776116912697,1507098048978158,9.514558,-0.17717093,-2.504335,-6.1086525E-4,-0.0067195175,0.002443461,TONIC,858092540784
1776116912705,1507098056950078,9.519346,-0.17956513,-2.492364,-0.0012217305,-0.01038471,-6.1086525E-4,TONIC,858092540784
1776116912713,1507098064943998,9.528923,-0.16280572,-2.5067291,-0.0012217305,-0.015882496,6.1086525E-4,TONIC,858092540784
1776116912721,1507098072995379,9.516952,-0.15801731,-2.5306711,-6.1086525E-4,-0.018325957,-6.1086525E-4,TONIC,858092540784
1776116912729,1507098080935914,9.528923,-0.17238252,-2.5210943,0.002443461,-0.017715093,-0.0012217305,TONIC,858092540784
1776116912737,1507098088930756,9.519346,-0.16519992,-2.516306,6.1086525E-4,-0.020158553,-0.002443461,TONIC,858092540784
1776116912746,1507098097049446,9.509769,-0.16759412,-2.5234885,6.1086525E-4,-0.017715093,-0.0036651916,TONIC,858092540784
1776116912753,1507098104952520,9.512163,-0.16759412,-2.5378537,-6.1086525E-4,-0.018325957,-0.002443461,TONIC,858092540784
1776116912761,1507098112948208,9.509769,-0.16280572,-2.5330653,-6.1086525E-4,-0.018325957,-0.0030543262,TONIC,858092540784
1776116912769,1507098120943974,9.481039,-0.14604631,-2.540248,0.0,-0.015882496,-0.004276057,TONIC,858092540784
1776116912777,1507098128939664,9.490616,-0.1436521,-2.5570073,-6.1086525E-4,-0.015271631,-0.004886922,TONIC,858092540784
1776116912785,1507098136934660,9.485827,-0.1436521,-2.5378537,-0.0030543262,-0.014660766,-0.0036651916,TONIC,858092540784
1776116912793,1507098144986426,9.485827,-0.14844051,-2.566584,-6.1086525E-4,-0.010995574,-0.0030543262,TONIC,858092540784
1776116912801,1507098152927037,9.507375,-0.1340753,-2.5689783,-0.0012217305,-0.009162978,-0.0036651916,TONIC,858092540784
1776116912809,1507098160953727,9.478644,-0.12928689,-2.554613,6.1086525E-4,-0.004886922,-0.005497787,TONIC,858092540784
1776116912817,1507098168879262,9.481039,-0.11971009,-2.5617957,0.0,0.0,-0.0036651916,TONIC,858092540784
1776116912825,1507098176944489,9.488221,-0.09816227,-2.5594015,0.0,0.004276057,-0.004276057,TONIC,858092540784
1776116912833,1507098184938409,9.476251,-0.10295067,-2.552219,-6.1086525E-4,0.007941248,-0.002443461,TONIC,858092540784
1776116912841,1507098192934636,9.481039,-0.10534488,-2.5378537,0.0012217305,0.01282817,-0.0012217305,TONIC,858092540784
1776116912849,1507098200931325,9.481039,-0.12928689,-2.5330653,6.1086525E-4,0.014049901,-0.0012217305,TONIC,858092540784
1776116912857,1507098208956476,9.507375,-0.1340753,-2.5234885,-6.1086525E-4,0.015271631,0.0018325958,TONIC,858092540784
1776116912865,1507098216951549,9.507375,-0.12928689,-2.5187001,0.0012217305,0.015882496,0.0030543262,TONIC,858092540784
1776116912873,1507098224949084,9.485827,-0.1436521,-2.5115175,0.0,0.015271631,0.004276057,TONIC,858092540784
1776116912881,1507098232943619,9.512163,-0.1436521,-2.5115175,-6.1086525E-4,0.012217305,0.004886922,TONIC,858092540784
1776116912889,1507098240942308,9.497798,-0.1388637,-2.5091233,-0.0012217305,0.013439035,0.005497787,TONIC,858092540784
1776116912897,1507098248990305,9.526528,-0.1436521,-2.504335,0.0,0.01038471,0.0036651916,TONIC,858092540784
1776116912905,1507098256930917,9.52174,-0.15562311,-2.5019407,-0.0012217305,0.0067195175,0.005497787,TONIC,858092540784
1776116912913,1507098264957067,9.519346,-0.15801731,-2.5139117,0.0,0.0067195175,0.0067195175,TONIC,858092540784
1776116912921,1507098272977064,9.516952,-0.15322891,-2.5091233,0.0,0.0061086523,0.0012217305,TONIC,858092540784
1776116912929,1507098280918676,9.514558,-0.16998832,-2.4971523,-6.1086525E-4,0.0061086523,0.002443461,TONIC,858092540784
1776116912937,1507098288942288,9.502586,-0.16519992,-2.504335,-0.0018325958,0.0012217305,0.0018325958,TONIC,858092540784
1776116912945,1507098296963900,9.516952,-0.15322891,-2.4995465,-0.0012217305,6.1086525E-4,0.0012217305,TONIC,858092540784
1776116912953,1507098304933666,9.543288,-0.1604115,-2.5330653,6.1086525E-4,0.0012217305,-0.0018325958,TONIC,858092540784
1776116912961,1507098312930048,9.509769,-0.16280572,-2.5139117,-6.1086525E-4,6.1086525E-4,0.0,TONIC,858092540784
1776116912969,1507098320957044,9.502586,-0.16519992,-2.5378537,6.1086525E-4,6.1086525E-4,6.1086525E-4,TONIC,858092540784
1776116912977,1507098328952502,9.504981,-0.1604115,-2.5258827,0.0012217305,0.0,0.0,TONIC,858092540784
1776116912985,1507098336947191,9.495404,-0.17477672,-2.5258827,-0.0012217305,0.002443461,0.0,TONIC,858092540784
1776116912993,1507098344943495,9.509769,-0.15801731,-2.5210943,0.0,0.0067195175,-0.002443461,TONIC,858092540784
1776116913001,1507098352938261,9.519346,-0.15801731,-2.5234885,6.1086525E-4,0.007330383,-6.1086525E-4,TONIC,858092540784
1776116913009,1507098360935565,9.509769,-0.15083471,-2.516306,0.0030543262,0.012217305,-6.1086525E-4,TONIC,858092540784
1776116913017,1507098368930947,9.528923,-0.15562311,-2.5067291,0.0012217305,0.01282817,0.0,TONIC,858092540784
1776116913026,1507098377011481,9.524135,-0.15322891,-2.5019407,0.0018325958,0.013439035,6.1086525E-4,TONIC,858092540784
1776116913033,1507098384953017,9.533711,-0.16280572,-2.4779987,0.0018325958,0.01282817,-6.1086525E-4,TONIC,858092540784
1776116913041,1507098392947168,9.526528,-0.17477672,-2.4779987,0.0018325958,0.014049901,-6.1086525E-4,TONIC,858092540784
1776116913049,1507098400943856,9.519346,-0.1604115,-2.468422,6.1086525E-4,0.01038471,-0.0012217305,TONIC,858092540784
1776116913057,1507098408938238,9.526528,-0.1604115,-2.4756045,0.0,0.004276057,-0.0030543262,TONIC,858092540784
1776116913065,1507098416933387,9.528923,-0.15322891,-2.4827871,6.1086525E-4,0.0018325958,-0.0018325958,TONIC,858092540784
1776116913073,1507098424985077,9.516952,-0.1364695,-2.4875755,6.1086525E-4,-0.0012217305,-0.0030543262,TONIC,858092540784
1776116913081,1507098432925074,9.516952,-0.15562311,-2.4851813,6.1086525E-4,0.0,-0.0018325958,TONIC,858092540784
1776116913089,1507098440953378,9.528923,-0.1388637,-2.4947581,-6.1086525E-4,-0.0012217305,-0.0030543262,TONIC,858092540784
1776116913098,1507098449002298,9.507375,-0.15083471,-2.4756045,6.1086525E-4,-0.0036651916,-0.0018325958,TONIC,858092540784
1776116913105,1507098456944447,9.52174,-0.14604631,-2.4875755,6.1086525E-4,-0.0067195175,-0.0012217305,TONIC,858092540784
1776116913113,1507098464936675,9.512163,-0.14844051,-2.4851813,0.0,-0.0067195175,-0.0018325958,TONIC,858092540784
1776116913121,1507098472933672,9.524135,-0.15322891,-2.504335,-6.1086525E-4,-0.007941248,-0.0018325958,TONIC,858092540784
1776116913129,1507098480929899,9.507375,-0.14604631,-2.4971523,-6.1086525E-4,-0.007941248,-0.0012217305,TONIC,858092540784
1776116913137,1507098488956050,9.507375,-0.15083471,-2.5067291,-0.0012217305,-0.0061086523,-0.0012217305,TONIC,858092540784
1776116913145,1507098496950816,9.512163,-0.1412579,-2.5139117,-0.0018325958,-0.0067195175,0.0,TONIC,858092540784
1776116913153,1507098504947812,9.509769,-0.1364695,-2.5139117,-6.1086525E-4,-0.005497787,-6.1086525E-4,TONIC,858092540784
1776116913161,1507098512942194,9.497798,-0.12210429,-2.5210943,0.0,-0.0061086523,0.0018325958,TONIC,858092540784
1776116913169,1507098520939190,9.490616,-0.1364695,-2.516306,0.0,-0.0030543262,0.0012217305,TONIC,858092540784
1776116913177,1507098528934495,9.502586,-0.14844051,-2.528277,0.0012217305,6.1086525E-4,0.0012217305,TONIC,858092540784
1776116913185,1507098536959415,9.504981,-0.15083471,-2.5234885,0.0018325958,0.0012217305,0.0018325958,TONIC,858092540784
1776116913193,1507098544954872,9.540894,-0.14604631,-2.540248,0.0012217305,0.0036651916,0.0036651916,TONIC,858092540784
1776116913202,1507098553006254,9.516952,-0.1316811,-2.5187001,-6.1086525E-4,0.004276057,0.0018325958,TONIC,858092540784
1776116913209,1507098560948404,9.502586,-0.1364695,-2.4995465,0.0,0.007941248,0.002443461,TONIC,858092540784
1776116913217,1507098568941555,9.512163,-0.15562311,-2.5019407,6.1086525E-4,0.009162978,0.002443461,TONIC,858092540784
1776116913225,1507098576962552,9.509769,-0.1388637,-2.492364,6.1086525E-4,0.007941248,0.0036651916,TONIC,858092540784
1776116913233,1507098584934163,9.500193,-0.1412579,-2.4779987,0.0012217305,0.0061086523,0.0030543262,TONIC,858092540784
1776116913241,1507098592959775,9.514558,-0.1436521,-2.4779987,0.0012217305,0.004276057,0.0030543262,TONIC,858092540784
1776116913249,1507098600957618,9.528923,-0.15801731,-2.4947581,0.0012217305,0.002443461,0.002443461,TONIC,858092540784
1776116913257,1507098608951692,9.507375,-0.15322891,-2.4899697,0.0012217305,-0.0012217305,0.004276057,TONIC,858092540784
1776116913265,1507098616945612,9.507375,-0.14844051,-2.4779987,0.0,6.1086525E-4,0.0036651916,TONIC,858092540784
1776116913273,1507098624940377,9.526528,-0.17238252,-2.480393,6.1086525E-4,-0.0036651916,0.002443461,TONIC,858092540784
1776116913281,1507098632937220,9.512163,-0.15083471,-2.4827871,0.0,-0.004276057,0.0036651916,TONIC,858092540784
1776116913289,1507098640933832,9.512163,-0.17238252,-2.468422,-6.1086525E-4,-0.007330383,0.0036651916,TONIC,858092540784
1776116913297,1507098648957828,9.507375,-0.15083471,-2.4612393,-6.1086525E-4,-0.01038471,0.004886922,TONIC,858092540784
1776116913306,1507098657010133,9.500193,-0.1604115,-2.4851813,-6.1086525E-4,-0.01282817,0.002443461,TONIC,858092540784
1776116913313,1507098664952898,9.519346,-0.15801731,-2.4947581,0.0,-0.018936822,0.0036651916,TONIC,858092540784
1776116913321,1507098672945819,9.507375,-0.16280572,-2.4947581,-0.0012217305,-0.017715093,0.002443461,TONIC,858092540784
1776116913329,1507098680942508,9.495404,-0.15322891,-2.5091233,0.0,-0.016493361,6.1086525E-4,TONIC,858092540784
1776116913337,1507098688937888,9.524135,-0.17477672,-2.5234885,0.0012217305,-0.017715093,6.1086525E-4,TONIC,858092540784
1776116913345,1507098696934116,9.512163,-0.1604115,-2.5139117,0.0018325958,-0.012217305,-6.1086525E-4,TONIC,858092540784
1776116913353,1507098704929497,9.519346,-0.16519992,-2.516306,0.0012217305,-0.010995574,-0.0012217305,TONIC,858092540784
1776116913361,1507098712953494,9.512163,-0.1604115,-2.5330653,0.0012217305,-0.009773844,-0.0018325958,TONIC,858092540784
1776116913369,1507098720950799,9.514558,-0.16998832,-2.5258827,0.0,-0.008552114,-0.0012217305,TONIC,858092540784
1776116913377,1507098728944872,9.519346,-0.17238252,-2.5210943,0.0012217305,-0.0061086523,-0.0018325958,TONIC,858092540784
1776116913385,1507098736911946,9.504981,-0.1604115,-2.5067291,6.1086525E-4,-0.004886922,-0.002443461,TONIC,858092540784
1776116913394,1507098745053249,9.49301,-0.1436521,-2.4995465,6.1086525E-4,-0.0036651916,-0.002443461,TONIC,858092540784
1776116913401,1507098752933169,9.504981,-0.15801731,-2.5067291,0.0012217305,0.0,-6.1086525E-4,TONIC,858092540784
1776116913409,1507098760927089,9.524135,-0.15083471,-2.5139117,0.004276057,0.0030543262,-0.0012217305,TONIC,858092540784
1776116913418,1507098769040009,9.502586,-0.1412579,-2.5210943,0.0,-6.1086525E-4,0.0012217305,TONIC,858092540784
1776116913425,1507098776919929,9.488221,-0.1412579,-2.516306,0.0030543262,0.0012217305,6.1086525E-4,TONIC,858092540784
1776116913433,1507098784944848,9.490616,-0.15322891,-2.5019407,0.0,0.0012217305,0.0012217305,TONIC,858092540784
1776116913441,1507098792965845,9.504981,-0.15801731,-2.504335,0.0012217305,0.0018325958,-6.1086525E-4,TONIC,858092540784
1776116913449,1507098800938380,9.500193,-0.16759412,-2.4995465,0.0018325958,0.0030543262,-6.1086525E-4,TONIC,858092540784
1776116913458,1507098809018069,9.507375,-0.15083471,-2.4971523,0.0,0.002443461,-6.1086525E-4,TONIC,858092540784
1776116913465,1507098816957527,9.509769,-0.16519992,-2.504335,6.1086525E-4,0.002443461,-0.0012217305,TONIC,858092540784
1776116913474,1507098825039908,9.516952,-0.15562311,-2.4899697,6.1086525E-4,0.0,-6.1086525E-4,TONIC,858092540784
1776116913481,1507098832918751,9.524135,-0.14604631,-2.4995465,0.0018325958,6.1086525E-4,-6.1086525E-4,TONIC,858092540784
1776116913489,1507098840946671,9.528923,-0.1604115,-2.4971523,6.1086525E-4,0.0018325958,-6.1086525E-4,TONIC,858092540784
1776116913498,1507098849026667,9.519346,-0.16519992,-2.504335,6.1086525E-4,0.002443461,-6.1086525E-4,TONIC,858092540784
1776116913505,1507098856935664,9.495404,-0.16519992,-2.4899697,0.0,0.0030543262,6.1086525E-4,TONIC,858092540784
1776116913513,1507098864932200,9.512163,-0.16759412,-2.4732103,0.0,0.0036651916,0.0,TONIC,858092540784
1776116913521,1507098872927580,9.502586,-0.16280572,-2.4779987,-6.1086525E-4,-6.1086525E-4,0.0,TONIC,858092540784
1776116913529,1507098880924808,9.497798,-0.15801731,-2.4827871,-6.1086525E-4,-0.004276057,0.0,TONIC,858092540784
1776116913538,1507098889035035,9.500193,-0.15083471,-2.5067291,-0.0018325958,-0.0067195175,-0.002443461,TONIC,858092540784
1776116913545,1507098896914955,9.514558,-0.1388637,-2.5210943,-0.0030543262,-0.0067195175,-6.1086525E-4,TONIC,858092540784
1776116913554,1507098905026336,9.512163,-0.1604115,-2.5306711,0.0,-0.004886922,-0.0018325958,TONIC,858092540784
1776116913561,1507098912928256,9.514558,-0.14604631,-2.5258827,-0.0012217305,-0.0030543262,-0.0012217305,TONIC,858092540784
1776116913569,1507098920931945,9.519346,-0.1388637,-2.5187001,6.1086525E-4,-0.0018325958,-0.002443461,TONIC,858092540784
1776116913578,1507098929111556,9.524135,-0.15801731,-2.5067291,-6.1086525E-4,6.1086525E-4,-0.0018325958,TONIC,858092540784
1776116913585,1507098936952861,9.497798,-0.1604115,-2.5139117,6.1086525E-4,0.0036651916,-0.0018325958,TONIC,858092540784
1776116913593,1507098944950089,9.497798,-0.14844051,-2.5187001,-0.0012217305,0.0030543262,-0.0012217305,TONIC,858092540784
1776116913601,1507098952943239,9.495404,-0.1364695,-2.4995465,6.1086525E-4,0.0036651916,0.0012217305,TONIC,858092540784
1776116913609,1507098960940466,9.504981,-0.1436521,-2.4947581,0.0,0.0030543262,-6.1086525E-4,TONIC,858092540784
1776116913617,1507098968936770,9.497798,-0.15801731,-2.5091233,0.0,0.005497787,6.1086525E-4,TONIC,858092540784
1776116913625,1507098976986690,9.514558,-0.15083471,-2.4827871,-6.1086525E-4,0.005497787,6.1086525E-4,TONIC,858092540784
1776116913633,1507098984956457,9.512163,-0.15322891,-2.492364,0.0,0.0061086523,-0.0012217305,TONIC,858092540784
1776116913642,1507098993008529,9.507375,-0.14604631,-2.5019407,-0.0018325958,0.004276057,-6.1086525E-4,TONIC,858092540784
1776116913649,1507099000920450,9.500193,-0.15083471,-2.5019407,-6.1086525E-4,0.0036651916,-0.0012217305,TONIC,858092540784
1776116913658,1507099009060753,9.507375,-0.15083471,-2.4827871,0.0012217305,0.0030543262,-0.0012217305,TONIC,858092540784
1776116913665,1507099016938673,9.481039,-0.1388637,-2.4947581,6.1086525E-4,0.0030543262,-0.0012217305,TONIC,858092540784
1776116913673,1507099024934593,9.507375,-0.1436521,-2.4995465,0.0,0.0030543262,6.1086525E-4,TONIC,858092540784
1776116913681,1507099032931282,9.497798,-0.15083471,-2.504335,0.0,0.0030543262,0.0,TONIC,858092540784
1776116913689,1507099040982048,9.507375,-0.1388637,-2.504335,-6.1086525E-4,6.1086525E-4,0.0018325958,TONIC,858092540784
1776116913697,1507099048922968,9.509769,-0.1412579,-2.504335,-6.1086525E-4,-0.0012217305,0.002443461,TONIC,858092540784
1776116913706,1507099057040426,9.500193,-0.1436521,-2.5187001,-0.002443461,-0.0030543262,0.0012217305,TONIC,858092540784
1776116913713,1507099064942961,9.502586,-0.15801731,-2.4995465,-6.1086525E-4,-0.002443461,0.0018325958,TONIC,858092540784
1776116913721,1507099072994957,9.495404,-0.16280572,-2.504335,-0.0012217305,-0.0018325958,0.0012217305,TONIC,858092540784
1776116913729,1507099080935262,9.519346,-0.17238252,-2.5019407,-6.1086525E-4,-6.1086525E-4,6.1086525E-4,TONIC,858092540784
1776116913737,1507099088930644,9.52174,-0.16280572,-2.4971523,-0.0018325958,-0.0018325958,6.1086525E-4,TONIC,858092540784
1776116913745,1507099096981716,9.528923,-0.17238252,-2.516306,-0.0012217305,6.1086525E-4,0.0012217305,TONIC,858092540784
1776116913753,1507099104952098,9.504981,-0.16759412,-2.5067291,-0.002443461,6.1086525E-4,0.0012217305,TONIC,858092540784
1776116913761,1507099112947863,9.524135,-0.16759412,-2.4995465,6.1086525E-4,0.0012217305,6.1086525E-4,TONIC,858092540784
1776116913769,1507099120944707,9.504981,-0.1604115,-2.4851813,-0.0036651916,0.0012217305,-6.1086525E-4,TONIC,858092540784
1776116913778,1507099129025319,9.504981,-0.15562311,-2.5019407,-6.1086525E-4,0.0,0.0,TONIC,858092540784
1776116913785,1507099136868392,9.507375,-0.15562311,-2.5115175,-0.0018325958,-0.0012217305,-6.1086525E-4,TONIC,858092540784
1776116913793,1507099144932466,9.516952,-0.16280572,-2.492364,0.0,6.1086525E-4,-0.0018325958,TONIC,858092540784
1776116913801,1507099152925694,9.502586,-0.17238252,-2.5067291,6.1086525E-4,0.0012217305,-0.0030543262,TONIC,858092540784
1776116913809,1507099160954613,9.502586,-0.15801731,-2.5139117,6.1086525E-4,0.0030543262,-0.002443461,TONIC,858092540784
1776116913817,1507099168948994,9.512163,-0.14604631,-2.5115175,-6.1086525E-4,0.002443461,-0.002443461,TONIC,858092540784
1776116913825,1507099176943144,9.507375,-0.17717093,-2.5115175,-6.1086525E-4,0.0036651916,-0.002443461,TONIC,858092540784
1776116913833,1507099184939526,9.507375,-0.15322891,-2.516306,-6.1086525E-4,0.0036651916,-0.0030543262,TONIC,858092540784
1776116913841,1507099192935523,9.509769,-0.1604115,-2.5019407,-6.1086525E-4,0.004886922,-0.002443461,TONIC,858092540784
1776116913849,1507099200930827,9.49301,-0.14844051,-2.5139117,-0.0012217305,0.005497787,-0.0018325958,TONIC,858092540784
1776116913857,1507099208956362,9.504981,-0.12928689,-2.4971523,-0.0012217305,0.007941248,-0.0030543262,TONIC,858092540784
1776116913865,1507099216951512,9.497798,-0.1316811,-2.492364,-6.1086525E-4,0.009773844,-0.002443461,TONIC,858092540784
1776116913874,1507099225003124,9.512163,-0.1388637,-2.4947581,-0.0012217305,0.01160644,-0.0030543262,TONIC,858092540784
1776116913881,1507099232912352,9.507375,-0.14844051,-2.504335,0.0,0.01282817,-0.0018325958,TONIC,858092540784
1776116913889,1507099240941040,9.512163,-0.12449849,-2.4851813,6.1086525E-4,0.01282817,-0.002443461,TONIC,858092540784
1776116913898,1507099249050884,9.502586,-0.1364695,-2.4875755,-0.0012217305,0.013439035,-0.002443461,TONIC,858092540784
1776116913905,1507099256929341,9.514558,-0.14604631,-2.4899697,0.0018325958,0.012217305,-0.0018325958,TONIC,858092540784
1776116913914,1507099265072646,9.512163,-0.1388637,-2.4947581,-6.1086525E-4,0.010995574,0.0,TONIC,858092540784
1776116913921,1507099272953643,9.502586,-0.1436521,-2.4779987,-6.1086525E-4,0.01282817,0.0,TONIC,858092540784
1776116913929,1507099280949331,9.504981,-0.1340753,-2.4732103,6.1086525E-4,0.01282817,-0.0012217305,TONIC,858092540784
1776116913937,1507099288998251,9.514558,-0.14604631,-2.4779987,-6.1086525E-4,0.012217305,-6.1086525E-4,TONIC,858092540784
1776116913945,1507099296908324,9.516952,-0.1412579,-2.4636335,6.1086525E-4,0.01038471,0.0,TONIC,858092540784
1776116913953,1507099304959091,9.509769,-0.1436521,-2.4636335,0.0018325958,0.008552114,0.0018325958,TONIC,858092540784
1776116913961,1507099312928626,9.509769,-0.14604631,-2.468422,-6.1086525E-4,0.0061086523,0.0018325958,TONIC,858092540784
1776116913969,1507099320956084,9.514558,-0.15322891,-2.456451,6.1086525E-4,0.0036651916,0.0012217305,TONIC,858092540784
1776116913977,1507099328952081,9.519346,-0.14844051,-2.4612393,0.0,0.0012217305,0.0018325958,TONIC,858092540784
1776116913985,1507099336946539,9.512163,-0.12689269,-2.456451,6.1086525E-4,0.0012217305,0.002443461,TONIC,858092540784
1776116913993,1507099344941843,9.531317,-0.1388637,-2.4612393,6.1086525E-4,-0.0012217305,0.002443461,TONIC,858092540784
1776116914001,1507099352939148,9.519346,-0.15083471,-2.4660277,-6.1086525E-4,-6.1086525E-4,0.002443461,TONIC,858092540784
1776116914009,1507099360936374,9.519346,-0.15322891,-2.468422,6.1086525E-4,-6.1086525E-4,0.0030543262,TONIC,858092540784
1776116914017,1507099368960910,9.526528,-0.1604115,-2.4708161,0.0,-0.002443461,0.004276057,TONIC,858092540784
1776116914025,1507099376954445,9.531317,-0.16759412,-2.4540567,0.0,-0.004276057,0.004276057,TONIC,858092540784
1776116914033,1507099384952287,9.536105,-0.15562311,-2.4540567,-0.0012217305,-0.0061086523,0.0030543262,TONIC,858092540784
1776116914041,1507099392946746,9.528923,-0.16759412,-2.4540567,-0.0012217305,-0.0067195175,0.0018325958,TONIC,858092540784
1776116914049,1507099400942819,9.545682,-0.16998832,-2.468422,-6.1086525E-4,-0.01282817,0.0018325958,TONIC,858092540784
1776116914057,1507099408939047,9.514558,-0.17956513,-2.4779987,-0.0012217305,-0.013439035,0.0018325958,TONIC,858092540784
1776116914065,1507099416933505,9.536105,-0.16280572,-2.468422,-0.0012217305,-0.015882496,0.0012217305,TONIC,858092540784
1776116914073,1507099424928886,9.52174,-0.15562311,-2.4899697,0.0,-0.017715093,6.1086525E-4,TONIC,858092540784
1776116914081,1507099432955114,9.500193,-0.1364695,-2.4732103,-6.1086525E-4,-0.019547688,0.0,TONIC,858092540784
1776116914089,1507099440952879,9.509769,-0.17477672,-2.4899697,6.1086525E-4,-0.021380283,0.0,TONIC,858092540784
1776116914097,1507099448946491,9.495404,-0.1388637,-2.492364,6.1086525E-4,-0.02076942,0.0012217305,TONIC,858092540784
1776116914105,1507099456941873,9.49301,-0.14844051,-2.4732103,-0.0012217305,-0.021991149,0.0018325958,TONIC,858092540784
1776116914113,1507099464936869,9.497798,-0.16280572,-2.5139117,0.0,-0.02565634,0.0,TONIC,858092540784
1776116914121,1507099472933251,9.504981,-0.18195933,-2.5234885,-6.1086525E-4,-0.022602014,6.1086525E-4,TONIC,858092540784
1776116914129,1507099480960631,9.507375,-0.17477672,-2.516306,6.1086525E-4,-0.021380283,-6.1086525E-4,TONIC,858092540784
1776116914137,1507099488955013,9.509769,-0.16280572,-2.5139117,0.0,-0.020158553,-0.0012217305,TONIC,858092540784
1776116914145,1507099496950164,9.516952,-0.15562311,-2.5258827,-6.1086525E-4,-0.017104227,-6.1086525E-4,TONIC,858092540784
1776116914153,1507099504945775,9.514558,-0.1604115,-2.528277,6.1086525E-4,-0.012217305,-0.004276057,TONIC,858092540784
1776116914162,1507099513064541,9.485827,-0.15562311,-2.5354595,6.1086525E-4,-0.01038471,-0.002443461,TONIC,858092540784
1776116914169,1507099520939077,9.497798,-0.16759412,-2.528277,0.0,-0.0061086523,-0.0030543262,TONIC,858092540784
1776116914177,1507099528958073,9.488221,-0.15083471,-2.528277,6.1086525E-4,-0.0036651916,-0.0030543262,TONIC,858092540784
1776116914185,1507099536927916,9.490616,-0.1412579,-2.516306,0.0,-6.1086525E-4,-0.0030543262,TONIC,858092540784
1776116914193,1507099544925143,9.504981,-0.1436521,-2.5115175,0.0012217305,0.004886922,-0.0030543262,TONIC,858092540784
1776116914201,1507099552975294,9.490616,-0.1364695,-2.5067291,0.0,0.004276057,-0.0018325958,TONIC,858092540784
1776116914209,1507099560946983,9.500193,-0.1436521,-2.528277,6.1086525E-4,0.009773844,-0.0012217305,TONIC,858092540784
1776116914217,1507099568941441,9.507375,-0.15562311,-2.504335,0.0018325958,0.009773844,-0.0030543262,TONIC,858092540784
1776116914225,1507099576992592,9.509769,-0.14604631,-2.4875755,0.0,0.013439035,-0.0012217305,TONIC,858092540784
1776116914233,1507099584965203,9.531317,-0.15562311,-2.5115175,0.0,0.015271631,-0.0018325958,TONIC,858092540784
1776116914242,1507099593014354,9.502586,-0.15322891,-2.4756045,-6.1086525E-4,0.013439035,-0.0012217305,TONIC,858092540784
1776116914249,1507099600956889,9.516952,-0.15801731,-2.4899697,6.1086525E-4,0.014049901,-0.0018325958,TONIC,858092540784
1776116914257,1507099608949731,9.514558,-0.15083471,-2.4612393,6.1086525E-4,0.014660766,-0.0012217305,TONIC,858092540784
1776116914265,1507099616914652,9.52174,-0.15801731,-2.480393,-0.0018325958,0.010995574,-0.0018325958,TONIC,858092540784
1776116914274,1507099625057801,9.528923,-0.16280572,-2.4660277,0.0,0.010995574,-6.1086525E-4,TONIC,858092540784
1776116914281,1507099632907645,9.516952,-0.16759412,-2.4540567,-6.1086525E-4,0.008552114,6.1086525E-4,TONIC,858092540784
1776116914289,1507099640894103,9.504981,-0.1604115,-2.4756045,-6.1086525E-4,0.0061086523,-0.0012217305,TONIC,858092540784
1776116914297,1507099648930099,9.531317,-0.1604115,-2.480393,-0.0018325958,0.0036651916,-0.0018325958,TONIC,858092540784
1776116914305,1507099656946327,9.514558,-0.14844051,-2.492364,-0.0018325958,0.0018325958,0.0,TONIC,858092540784
1776116914313,1507099664950938,9.52174,-0.12449849,-2.4971523,-0.0018325958,0.0,-0.0012217305,TONIC,858092540784
1776116914321,1507099672970397,9.531317,-0.1340753,-2.4971523,-6.1086525E-4,0.0012217305,-0.002443461,TONIC,858092540784
1776116914329,1507099680942086,9.507375,-0.1364695,-2.4875755,-0.0012217305,0.004276057,-0.0018325958,TONIC,858092540784
1776116914337,1507099688961467,9.514558,-0.14844051,-2.4851813,0.0,0.005497787,-0.0018325958,TONIC,858092540784
1776116914345,1507099696931925,9.514558,-0.14844051,-2.4779987,-0.0012217305,0.0061086523,-0.0018325958,TONIC,858092540784
1776116914353,1507099704957769,9.509769,-0.1388637,-2.4899697,-6.1086525E-4,0.0067195175,-0.0012217305,TONIC,858092540784
1776116914361,1507099712955918,9.514558,-0.15801731,-2.4660277,-6.1086525E-4,0.004276057,-0.0018325958,TONIC,858092540784
1776116914369,1507099720950608,9.516952,-0.17956513,-2.480393,0.0018325958,0.005497787,-0.0030543262,TONIC,858092540784
1776116914378,1507099729000527,9.512163,-0.14844051,-2.4756045,0.0,0.0012217305,-0.002443461,TONIC,858092540784
1776116914385,1507099736909755,9.516952,-0.16280572,-2.4732103,0.0,0.0012217305,-6.1086525E-4,TONIC,858092540784
1776116914393,1507099744991829,9.516952,-0.1436521,-2.468422,-6.1086525E-4,-6.1086525E-4,-0.0012217305,TONIC,858092540784
1776116914401,1507099752930978,9.509769,-0.15322891,-2.4636335,6.1086525E-4,-0.0012217305,-0.0012217305,TONIC,858092540784
1776116914409,1507099760929437,9.528923,-0.14844051,-2.4756045,6.1086525E-4,-0.0036651916,-0.0018325958,TONIC,858092540784
1776116914418,1507099769070279,9.481039,-0.12689269,-2.4756045,0.0018325958,-0.0030543262,-0.002443461,TONIC,858092540784
1776116914425,1507099776921122,9.504981,-0.12210429,-2.4779987,0.0,-0.004886922,-0.0018325958,TONIC,858092540784
1776116914433,1507099784946273,9.504981,-0.12928689,-2.4827871,6.1086525E-4,-0.0067195175,-0.0012217305,TONIC,858092540784
1776116914441,1507099792941346,9.504981,-0.12210429,-2.4875755,0.004276057,-0.005497787,-6.1086525E-4,TONIC,858092540784
1776116914449,1507099800937728,9.507375,-0.1340753,-2.480393,6.1086525E-4,-0.007330383,-0.0012217305,TONIC,858092540784
1776116914458,1507099809048185,9.504981,-0.1364695,-2.4947581,6.1086525E-4,-0.007330383,0.0,TONIC,858092540784
1776116914465,1507099816958029,9.512163,-0.15322891,-2.492364,0.0012217305,-0.005497787,0.0,TONIC,858092540784
1776116914473,1507099824925641,9.528923,-0.1388637,-2.4875755,-0.0012217305,-0.004886922,0.0018325958,TONIC,858092540784
1776116914481,1507099832949637,9.52174,-0.15801731,-2.4899697,-0.002443461,-0.0061086523,0.0012217305,TONIC,858092540784
1776116914489,1507099840946326,9.514558,-0.15322891,-2.4875755,-6.1086525E-4,-0.005497787,6.1086525E-4,TONIC,858092540784
1776116914498,1507099849026245,9.512163,-0.14844051,-2.480393,0.0,-0.0061086523,6.1086525E-4,TONIC,858092540784
1776116914505,1507099856936396,9.514558,-0.15562311,-2.4732103,-6.1086525E-4,-0.0036651916,0.0,TONIC,858092540784
1776116914513,1507099864961624,9.516952,-0.16759412,-2.4779987,6.1086525E-4,-0.005497787,0.0018325958,TONIC,858092540784
1776116914521,1507099872928082,9.514558,-0.15562311,-2.4732103,0.0012217305,-0.005497787,0.0,TONIC,858092540784
1776116914529,1507099880922848,9.516952,-0.16519992,-2.492364,0.0,-0.007330383,0.0030543262,TONIC,858092540784
1776116914537,1507099888949922,9.519346,-0.15083471,-2.4995465,-6.1086525E-4,-0.0067195175,0.002443461,TONIC,858092540784
1776116914545,1507099896969302,9.531317,-0.17477672,-2.4947581,-0.0018325958,-0.007941248,0.0,TONIC,858092540784
1776116914553,1507099904940146,9.507375,-0.15322891,-2.4851813,-6.1086525E-4,-0.0061086523,0.0,TONIC,858092540784
1776116914561,1507099912935219,9.500193,-0.1604115,-2.4947581,6.1086525E-4,-0.004886922,0.0,TONIC,858092540784
1776116914569,1507099920932985,9.514558,-0.16280572,-2.5019407,0.0,-0.004886922,-0.0018325958,TONIC,858092540784
1776116914577,1507099928982213,9.52174,-0.16998832,-2.4995465,6.1086525E-4,-0.004886922,-0.002443461,TONIC,858092540784
1776116914585,1507099936921978,9.519346,-0.1436521,-2.504335,-6.1086525E-4,-0.004276057,-0.0018325958,TONIC,858092540784
1776116914593,1507099944973359,9.504981,-0.14604631,-2.4851813,0.0,-0.0030543262,-0.0012217305,TONIC,858092540784
1776116914601,1507099952944740,9.512163,-0.15562311,-2.5019407,0.0,-0.0030543262,-0.002443461,TONIC,858092540784
1776116914609,1507099960964660,9.524135,-0.14844051,-2.5067291,-6.1086525E-4,-0.0036651916,-0.002443461,TONIC,858092540784
1776116914617,1507099968936042,9.526528,-0.1388637,-2.5019407,-0.0012217305,0.0012217305,-0.0030543262,TONIC,858092540784
1776116914625,1507099976955807,9.516952,-0.16280572,-2.4971523,-0.0012217305,0.002443461,-0.0012217305,TONIC,858092540784
1776116914633,1507099984957958,9.512163,-0.16519992,-2.4899697,-6.1086525E-4,0.004886922,-0.0012217305,TONIC,858092540784
1776116914642,1507099993008108,9.502586,-0.16519992,-2.5019407,0.0,0.004276057,-0.002443461,TONIC,858092540784
1776116914649,1507100000950566,9.52174,-0.15083471,-2.4971523,-0.0012217305,0.0018325958,-0.0030543262,TONIC,858092540784
1776116914657,1507100008999179,9.497798,-0.14844051,-2.5091233,-0.002443461,-6.1086525E-4,-0.002443461,TONIC,858092540784
1776116914665,1507100016910175,9.507375,-0.1364695,-2.504335,-0.0012217305,6.1086525E-4,-0.0018325958,TONIC,858092540784
1776116914673,1507100024936018,9.502586,-0.1364695,-2.4899697,-0.0018325958,0.0030543262,-0.0012217305,TONIC,858092540784
1776116914681,1507100032963169,9.49301,-0.1316811,-2.480393,0.0,0.0030543262,-0.002443461,TONIC,858092540784
1776116914690,1507100041012088,9.502586,-0.12928689,-2.4995465,0.0,0.005497787,-0.0018325958,TONIC,858092540784
1776116914697,1507100048922777,9.488221,-0.1436521,-2.4899697,0.0,0.005497787,-6.1086525E-4,TONIC,858092540784
1776116914705,1507100056947158,9.516952,-0.1364695,-2.4756045,0.0,0.0036651916,6.1086525E-4,TONIC,858092540784
1776116914713,1507100064943155,9.507375,-0.16280572,-2.4779987,0.0,0.004276057,0.0012217305,TONIC,858092540784
1776116914721,1507100072964075,9.519346,-0.1316811,-2.4756045,0.0,0.0036651916,0.0012217305,TONIC,858092540784
1776116914729,1507100080936994,9.528923,-0.16280572,-2.492364,0.0012217305,-6.1086525E-4,6.1086525E-4,TONIC,858092540784
1776116914738,1507100089016376,9.512163,-0.1388637,-2.480393,-6.1086525E-4,-6.1086525E-4,0.0012217305,TONIC,858092540784
1776116914745,1507100096926449,9.524135,-0.14844051,-2.5139117,-0.0012217305,-0.0018325958,0.0012217305,TONIC,858092540784
1776116914753,1507100104923061,9.524135,-0.12928689,-2.4971523,-6.1086525E-4,-0.0018325958,0.0012217305,TONIC,858092540784
1776116914761,1507100112916597,9.504981,-0.1436521,-2.504335,-0.0012217305,-0.002443461,6.1086525E-4,TONIC,858092540784
1776116914769,1507100120945900,9.516952,-0.14844051,-2.504335,6.1086525E-4,0.0030543262,-6.1086525E-4,TONIC,858092540784
1776116914778,1507100129055359,9.519346,-0.1436521,-2.4947581,6.1086525E-4,0.002443461,-6.1086525E-4,TONIC,858092540784
1776116914785,1507100136903355,9.500193,-0.1388637,-2.4899697,0.0,0.0018325958,0.0012217305,TONIC,858092540784
1776116914793,1507100144961506,9.49301,-0.1436521,-2.492364,-6.1086525E-4,0.0030543262,-6.1086525E-4,TONIC,858092540784
1776116914801,1507100152981195,9.528923,-0.15562311,-2.480393,-0.0018325958,-0.0018325958,0.0012217305,TONIC,858092540784
1776116914809,1507100160952653,9.524135,-0.14844051,-2.4708161,-6.1086525E-4,6.1086525E-4,6.1086525E-4,TONIC,858092540784
1776116914818,1507100169131111,9.519346,-0.12689269,-2.4971523,0.0,0.0018325958,0.0018325958,TONIC,858092540784
1776116914825,1507100176967953,9.497798,-0.14604631,-2.4947581,0.0012217305,-0.0012217305,0.0018325958,TONIC,858092540784
1776116914833,1507100184907720,9.507375,-0.15801731,-2.4779987,0.0,-0.0012217305,6.1086525E-4,TONIC,858092540784
1776116914841,1507100192835024,9.504981,-0.16280572,-2.492364,0.0012217305,0.0012217305,0.0,TONIC,858092540784
1776116914849,1507100200932020,9.52174,-0.16759412,-2.4732103,0.0,-0.0012217305,0.0012217305,TONIC,858092540784
1776116914858,1507100209041864,9.524135,-0.1604115,-2.4756045,-6.1086525E-4,-0.005497787,0.0018325958,TONIC,858092540784
1776116914865,1507100216952322,9.504981,-0.1436521,-2.480393,0.0018325958,-0.005497787,-0.0012217305,TONIC,858092540784
1776116914873,1507100224917549,9.524135,-0.14604631,-2.4875755,0.0,-0.0061086523,0.0,TONIC,858092540784
1776116914881,1507100232911392,9.516952,-0.14844051,-2.4971523,0.0036651916,-0.005497787,0.0,TONIC,858092540784
1776116914889,1507100240939927,9.519346,-0.15801731,-2.492364,-6.1086525E-4,-0.0067195175,-6.1086525E-4,TONIC,858092540784
1776116914897,1507100248959000,9.533711,-0.14604631,-2.480393,-6.1086525E-4,-0.0030543262,-6.1086525E-4,TONIC,858092540784
1776116914905,1507100256930997,9.49301,-0.14844051,-2.5139117,-0.0012217305,-0.004276057,0.0,TONIC,858092540784
1776116914914,1507100265072224,9.509769,-0.1412579,-2.5019407,-0.002443461,-0.0061086523,-0.0012217305,TONIC,858092540784
1776116914921,1507100272920837,9.514558,-0.14604631,-2.4947581,6.1086525E-4,-0.0018325958,0.0,TONIC,858092540784
1776116914929,1507100280910756,9.507375,-0.15562311,-2.492364,-6.1086525E-4,-0.0012217305,6.1086525E-4,TONIC,858092540784
1776116914937,1507100288944830,9.507375,-0.15083471,-2.4851813,0.0,-6.1086525E-4,6.1086525E-4,TONIC,858092540784
1776116914946,1507100297023981,9.516952,-0.1436521,-2.4827871,-6.1086525E-4,-0.0012217305,0.0012217305,TONIC,858092540784
1776116914953,1507100304933515,9.514558,-0.15083471,-2.4971523,0.0,6.1086525E-4,-6.1086525E-4,TONIC,858092540784
1776116914961,1507100312960820,9.519346,-0.14604631,-2.4899697,-0.0012217305,-0.0012217305,6.1086525E-4,TONIC,858092540784
1776116914969,1507100320957200,9.495404,-0.15083471,-2.4875755,-0.0012217305,0.0,6.1086525E-4,TONIC,858092540784
1776116914977,1507100328950351,9.500193,-0.1388637,-2.480393,0.0,-0.0018325958,0.0,TONIC,858092540784
1776116914985,1507100336945810,9.49301,-0.14604631,-2.4875755,6.1086525E-4,-6.1086525E-4,-6.1086525E-4,TONIC,858092540784
1776116914993,1507100344997729,9.504981,-0.1412579,-2.4971523,0.0,6.1086525E-4,-6.1086525E-4,TONIC,858092540784
1776116915001,1507100352936572,9.495404,-0.14844051,-2.4851813,0.0,-0.0018325958,0.0012217305,TONIC,858092540784
1776116915009,1507100360935031,9.507375,-0.15322891,-2.5091233,6.1086525E-4,-6.1086525E-4,0.0,TONIC,858092540784
1776116915018,1507100369075950,9.488221,-0.1436521,-2.5019407,-0.0012217305,-0.0018325958,0.0,TONIC,858092540784
1776116915025,1507100376926408,9.512163,-0.12449849,-2.492364,-0.0012217305,6.1086525E-4,6.1086525E-4,TONIC,858092540784
1776116915034,1507100385067250,9.519346,-0.1364695,-2.504335,-6.1086525E-4,0.002443461,6.1086525E-4,TONIC,858092540784
1776116915041,1507100392915247,9.519346,-0.1412579,-2.5187001,-0.0012217305,0.0018325958,0.0018325958,TONIC,858092540784
1776116915049,1507100400942937,9.519346,-0.15083471,-2.4971523,-0.0018325958,0.002443461,0.0,TONIC,858092540784
1776116915058,1507100409054010,9.500193,-0.14604631,-2.492364,-6.1086525E-4,0.004886922,0.0018325958,TONIC,858092540784
1776116915065,1507100416932776,9.504981,-0.15562311,-2.4732103,-6.1086525E-4,0.0030543262,0.0030543262,TONIC,858092540784
1776116915073,1507100424930003,9.512163,-0.14604631,-2.4660277,-0.0018325958,6.1086525E-4,0.0018325958,TONIC,858092540784
1776116915081,1507100432955615,9.512163,-0.15083471,-2.480393,0.0,-0.0030543262,0.0012217305,TONIC,858092540784
1776116915089,1507100440951305,9.509769,-0.17477672,-2.4875755,-0.0012217305,-0.002443461,0.002443461,TONIC,858092540784
1776116915097,1507100448946916,9.490616,-0.16759412,-2.4875755,-6.1086525E-4,-0.004886922,0.0018325958,TONIC,858092540784
1776116915105,1507100456940759,9.519346,-0.15801731,-2.4947581,-0.0018325958,-0.004886922,0.0012217305,TONIC,858092540784
1776116915113,1507100464936447,9.516952,-0.15322891,-2.4971523,0.0,-0.0061086523,0.0,TONIC,858092540784
1776116915121,1507100472932214,9.524135,-0.1436521,-2.504335,-0.0012217305,-0.004276057,0.0,TONIC,858092540784
1776116915130,1507100481014365,9.504981,-0.1364695,-2.5019407,-6.1086525E-4,-0.0018325958,0.0,TONIC,858092540784
1776116915137,1507100488955822,9.512163,-0.14844051,-2.4995465,0.0012217305,-0.0012217305,-6.1086525E-4,TONIC,858092540784
1776116915145,1507100496918896,9.504981,-0.1388637,-2.5067291,-6.1086525E-4,-0.0030543262,-6.1086525E-4,TONIC,858092540784
1776116915153,1507100504915277,9.507375,-0.1436521,-2.4827871,0.0,-6.1086525E-4,-0.0012217305,TONIC,858092540784
1776116915161,1507100512940735,9.502586,-0.16280572,-2.4971523,0.0012217305,0.0,-6.1086525E-4,TONIC,858092540784
1776116915169,1507100520907809,9.514558,-0.15562311,-2.4851813,0.0012217305,-6.1086525E-4,0.0018325958,TONIC,858092540784
1776116915177,1507100528802574,9.502586,-0.14844051,-2.492364,0.0018325958,0.0,0.0,TONIC,858092540784
1776116915185,1507100536927187,9.502586,-0.1412579,-2.4779987,6.1086525E-4,0.0,0.0,TONIC,858092540784
1776116915193,1507100544953953,9.514558,-0.1412579,-2.5019407,0.0,-6.1086525E-4,-6.1086525E-4,TONIC,858092540784
1776116915201,1507100552948718,9.500193,-0.1364695,-2.4875755,0.0,-0.0012217305,-0.0012217305,TONIC,858092540784
1776116915209,1507100560946869,9.49301,-0.1316811,-2.4875755,0.0,-6.1086525E-4,0.0,TONIC,858092540784
1776116915217,1507100568996711,9.504981,-0.1388637,-2.4899697,6.1086525E-4,-0.0012217305,-6.1086525E-4,TONIC,858092540784
1776116915225,1507100576906862,9.504981,-0.14844051,-2.492364,0.0,0.0012217305,0.0012217305,TONIC,858092540784
1776116915233,1507100584933398,9.514558,-0.1412579,-2.4971523,6.1086525E-4,0.0018325958,0.0018325958,TONIC,858092540784
1776116915241,1507100592927548,9.507375,-0.1412579,-2.492364,-6.1086525E-4,0.0018325958,0.0018325958,TONIC,858092540784
1776116915249,1507100600978929,9.526528,-0.1340753,-2.4851813,0.0018325958,0.0030543262,0.0012217305,TONIC,858092540784
1776116915257,1507100608949310,9.516952,-0.14844051,-2.4875755,0.0,6.1086525E-4,0.0018325958,TONIC,858092540784
1776116915265,1507100616914307,9.507375,-0.15562311,-2.4851813,6.1086525E-4,6.1086525E-4,0.002443461,TONIC,858092540784
1776116915273,1507100624965919,9.507375,-0.1412579,-2.4947581,-6.1086525E-4,-6.1086525E-4,0.002443461,TONIC,858092540784
1776116915281,1507100632936377,9.526528,-0.15801731,-2.4827871,-6.1086525E-4,-6.1086525E-4,0.002443461,TONIC,858092540784
1776116915289,1507100640933605,9.504981,-0.1412579,-2.4779987,0.0,0.0,0.0030543262,TONIC,858092540784
1776116915297,1507100648958524,9.519346,-0.15562311,-2.4995465,-6.1086525E-4,6.1086525E-4,0.0030543262,TONIC,858092540784
1776116915306,1507100657039751,9.516952,-0.15801731,-2.5139117,-0.0012217305,6.1086525E-4,0.002443461,TONIC,858092540784
1776116915313,1507100664951133,9.514558,-0.15083471,-2.516306,-0.0018325958,0.0012217305,6.1086525E-4,TONIC,858092540784
1776116915322,1507100673000437,9.509769,-0.17238252,-2.5091233,6.1086525E-4,0.0,0.0012217305,TONIC,858092540784
1776116915329,1507100680941972,9.512163,-0.15801731,-2.4947581,-6.1086525E-4,0.002443461,0.0012217305,TONIC,858092540784
1776116915337,1507100688935122,9.512163,-0.15083471,-2.4899697,6.1086525E-4,-6.1086525E-4,0.0,TONIC,858092540784
1776116915346,1507100697048350,9.507375,-0.15562311,-2.4827871,0.0,-0.002443461,6.1086525E-4,TONIC,858092540784
1776116915353,1507100704957347,9.49301,-0.1604115,-2.4827871,-6.1086525E-4,-0.0018325958,-0.0012217305,TONIC,858092540784
1776116915361,1507100712978497,9.495404,-0.16280572,-2.492364,0.0,-0.0018325958,6.1086525E-4,TONIC,858092540784
1776116915369,1507100720920417,9.52174,-0.16519992,-2.4875755,6.1086525E-4,-0.0018325958,-0.0018325958,TONIC,858092540784
1776116915377,1507100728944337,9.516952,-0.15562311,-2.4899697,-6.1086525E-4,-0.002443461,-0.0018325958,TONIC,858092540784
1776116915385,1507100736940718,9.526528,-0.14844051,-2.5067291,0.0018325958,-6.1086525E-4,-0.0030543262,TONIC,858092540784
1776116915393,1507100744960945,9.509769,-0.14844051,-2.5091233,0.0,-0.0018325958,-0.0012217305,TONIC,858092540784
1776116915401,1507100752930865,9.504981,-0.15083471,-2.504335,0.0,0.0012217305,-0.0018325958,TONIC,858092540784
1776116915409,1507100760927708,9.509769,-0.1316811,-2.4947581,-6.1086525E-4,6.1086525E-4,-0.0018325958,TONIC,858092540784
1776116915418,1507100769069859,9.502586,-0.14844051,-2.4827871,-0.0012217305,0.0012217305,-6.1086525E-4,TONIC,858092540784
1776116915425,1507100776918239,9.504981,-0.12449849,-2.4827871,-6.1086525E-4,0.004276057,-0.0012217305,TONIC,858092540784
1776116915433,1507100784945236,9.504981,-0.14844051,-2.4756045,0.002443461,0.0012217305,-6.1086525E-4,TONIC,858092540784
1776116915441,1507100792940617,9.500193,-0.1364695,-2.4947581,-0.0012217305,-0.002443461,-0.0012217305,TONIC,858092540784
1776116915449,1507100800906460,9.512163,-0.1340753,-2.4851813,-6.1086525E-4,-0.0030543262,-0.0012217305,TONIC,858092540784
1776116915457,1507100808986765,9.490616,-0.11492168,-2.5067291,-6.1086525E-4,-0.002443461,-6.1086525E-4,TONIC,858092540784
1776116915465,1507100816927992,9.502586,-0.1340753,-2.5019407,6.1086525E-4,-0.0018325958,0.0,TONIC,858092540784
1776116915473,1507100824977912,9.497798,-0.12210429,-2.5115175,6.1086525E-4,0.0,6.1086525E-4,TONIC,858092540784
1776116915481,1507100832919138,9.512163,-0.1412579,-2.4899697,6.1086525E-4,0.0018325958,6.1086525E-4,TONIC,858092540784
1776116915489,1507100840915674,9.519346,-0.14844051,-2.4899697,-0.0012217305,0.002443461,0.0018325958,TONIC,858092540784
1776116915497,1507100848939132,9.519346,-0.14844051,-2.4779987,0.0018325958,0.004886922,0.0012217305,TONIC,858092540784
1776116915505,1507100856934744,9.504981,-0.15083471,-2.4732103,-6.1086525E-4,0.005497787,0.0018325958,TONIC,858092540784
1776116915513,1507100864930202,9.512163,-0.15322891,-2.492364,6.1086525E-4,0.0018325958,0.002443461,TONIC,858092540784
1776116915521,1507100872957275,9.519346,-0.14844051,-2.4995465,-0.0012217305,-0.0018325958,0.0018325958,TONIC,858092540784
1776116915529,1507100880977580,9.52174,-0.14604631,-2.4851813,-0.0018325958,-0.0030543262,0.002443461,TONIC,858092540784
1776116915537,1507100888948039,9.516952,-0.15083471,-2.4899697,-0.0012217305,-0.002443461,0.002443461,TONIC,858092540784
1776116915545,1507100896944650,9.524135,-0.1388637,-2.480393,-0.0018325958,-0.004886922,0.002443461,TONIC,858092540784
1776116915553,1507100904941801,9.516952,-0.14844051,-2.480393,0.0,-0.004886922,0.002443461,TONIC,858092540784
1776116915561,1507100912934490,9.526528,-0.1388637,-2.4875755,-0.002443461,-0.004276057,0.0018325958,TONIC,858092540784
1776116915569,1507100920933179,9.507375,-0.15562311,-2.504335,0.0018325958,-0.002443461,0.0030543262,TONIC,858092540784
1776116915578,1507100929042791,9.509769,-0.15083471,-2.4827871,0.0012217305,-0.0018325958,0.0030543262,TONIC,858092540784
1776116915585,1507100936924018,9.516952,-0.1604115,-2.4875755,-6.1086525E-4,-0.0036651916,0.002443461,TONIC,858092540784
1776116915593,1507100944972938,9.509769,-0.16280572,-2.480393,-0.0012217305,-0.0036651916,0.0012217305,TONIC,858092540784
1776116915601,1507100952914396,9.52174,-0.15562311,-2.4899697,0.0,-0.002443461,0.0,TONIC,858092540784
1776116915609,1507100960940546,9.509769,-0.15562311,-2.4899697,-0.0030543262,-0.007330383,0.002443461,TONIC,858092540784
1776116915618,1507100969051389,9.495404,-0.1604115,-2.4947581,-0.0036651916,-0.0067195175,-6.1086525E-4,TONIC,858092540784
1776116915625,1507100976932924,9.502586,-0.15083471,-2.4851813,6.1086525E-4,-0.0061086523,0.0018325958,TONIC,858092540784
1776116915633,1507100984981536,9.512163,-0.14844051,-2.4875755,0.0,-0.0061086523,0.0,TONIC,858092540784
1776116915641,1507100992953149,9.516952,-0.15562311,-2.4779987,-0.0012217305,-0.005497787,6.1086525E-4,TONIC,858092540784
1776116915649,1507101000949837,9.504981,-0.15083471,-2.5019407,-0.0012217305,-0.0061086523,0.0,TONIC,858092540784
1776116915658,1507101009096603,9.504981,-0.15083471,-2.4756045,-0.0012217305,-0.004276057,-6.1086525E-4,TONIC,858092540784
1776116915665,1507101016994446,9.507375,-0.15801731,-2.504335,0.0,-0.005497787,-6.1086525E-4,TONIC,858092540784
1776116915673,1507101024934058,9.512163,-0.15083471,-2.4756045,0.0,-0.0061086523,0.0,TONIC,858092540784
1776116915681,1507101032960209,9.504981,-0.15083471,-2.504335,-6.1086525E-4,-0.004886922,0.0,TONIC,858092540784
1776116915689,1507101040927051,9.502586,-0.1412579,-2.4995465,6.1086525E-4,-0.0036651916,6.1086525E-4,TONIC,858092540784
1776116915697,1507101048976894,9.504981,-0.14844051,-2.5115175,0.0,-0.0018325958,-0.0012217305,TONIC,858092540784
1776116915705,1507101056918122,9.485827,-0.1388637,-2.5139117,-6.1086525E-4,-0.002443461,-6.1086525E-4,TONIC,858092540784
1776116915713,1507101064941195,9.497798,-0.15083471,-2.5139117,0.0018325958,0.0,-6.1086525E-4,TONIC,858092540784
1776116915722,1507101073059576,9.524135,-0.1436521,-2.5139117,6.1086525E-4,0.0,-6.1086525E-4,TONIC,858092540784
1776116915729,1507101080935342,9.516952,-0.1436521,-2.5019407,0.0012217305,0.0036651916,-6.1086525E-4,TONIC,858092540784
1776116915737,1507101088985416,9.490616,-0.1436521,-2.4971523,-6.1086525E-4,0.0018325958,6.1086525E-4,TONIC,858092540784
1776116915745,1507101096926105,9.49301,-0.15562311,-2.504335,-0.0012217305,0.0036651916,0.0012217305,TONIC,858092540784
1776116915753,1507101104920563,9.49301,-0.15322891,-2.4875755,-6.1086525E-4,0.0030543262,0.0,TONIC,858092540784
1776116915761,1507101112947329,9.507375,-0.1412579,-2.4851813,-0.002443461,0.004886922,-0.0018325958,TONIC,858092540784
1776116915769,1507101120914325,9.514558,-0.1388637,-2.5067291,6.1086525E-4,0.004886922,-6.1086525E-4,TONIC,858092540784
1776116915777,1507101128994014,9.500193,-0.15083471,-2.4899697,0.0,0.005497787,0.0012217305,TONIC,858092540784
1776116915785,1507101136903242,9.516952,-0.14844051,-2.504335,-0.0012217305,0.004276057,6.1086525E-4,TONIC,858092540784
1776116915793,1507101144959930,9.516952,-0.1364695,-2.4899697,0.0012217305,0.0067195175,0.0,TONIC,858092540784
1776116915801,1507101152925466,9.49301,-0.15562311,-2.492364,6.1086525E-4,0.004886922,0.002443461,TONIC,858092540784
1776116915809,1507101160921769,9.500193,-0.1364695,-2.4995465,-6.1086525E-4,0.0036651916,6.1086525E-4,TONIC,858092540784
1776116915818,1507101169129151,9.509769,-0.15322891,-2.4971523,6.1086525E-4,0.004886922,0.0,TONIC,858092540784
1776116915825,1507101176942302,9.514558,-0.12928689,-2.492364,6.1086525E-4,0.002443461,6.1086525E-4,TONIC,858092540784
1776116915833,1507101184937144,9.519346,-0.1316811,-2.4851813,0.0,0.004276057,0.0012217305,TONIC,858092540784
1776116915841,1507101192933372,9.516952,-0.1436521,-2.4899697,0.0,0.0018325958,6.1086525E-4,TONIC,858092540784
1776116915849,1507101200954368,9.488221,-0.14844051,-2.5019407,6.1086525E-4,0.004276057,0.0,TONIC,858092540784
1776116915857,1507101208925365,9.512163,-0.14844051,-2.4827871,0.0012217305,0.004276057,0.002443461,TONIC,858092540784
1776116915865,1507101216951824,9.502586,-0.15083471,-2.4851813,-6.1086525E-4,0.004276057,0.0012217305,TONIC,858092540784
1776116915873,1507101224947820,9.509769,-0.1364695,-2.4875755,-6.1086525E-4,0.0012217305,0.0,TONIC,858092540784
1776116915881,1507101232967278,9.500193,-0.14604631,-2.4971523,0.0018325958,-0.0018325958,-6.1086525E-4,TONIC,858092540784
1776116915889,1507101240938352,9.504981,-0.14604631,-2.5091233,0.0,-0.004276057,0.0012217305,TONIC,858092540784
1776116915897,1507101248958579,9.512163,-0.1340753,-2.5091233,-0.0012217305,-0.0061086523,-6.1086525E-4,TONIC,858092540784
1776116915905,1507101256931576,9.519346,-0.14844051,-2.4971523,-0.0018325958,-0.0036651916,6.1086525E-4,TONIC,858092540784
1776116915913,1507101264956418,9.509769,-0.14844051,-2.4851813,-6.1086525E-4,-6.1086525E-4,0.0,TONIC,858092540784
1776116915922,1507101273067261,9.516952,-0.1412579,-2.504335,0.0,0.0,6.1086525E-4,TONIC,858092540784
1776116915929,1507101280946951,9.516952,-0.15322891,-2.492364,-6.1086525E-4,6.1086525E-4,0.0,TONIC,858092540784
1776116915937,1507101288966947,9.512163,-0.1412579,-2.4995465,0.002443461,0.0030543262,0.0,TONIC,858092540784
1776116915945,1507101296936790,9.507375,-0.14604631,-2.4875755,0.0,0.0,0.0012217305,TONIC,858092540784
1776116915953,1507101304988709,9.526528,-0.17956513,-2.4899697,0.0,0.0030543262,6.1086525E-4,TONIC,858092540784
1776116915961,1507101312961629,9.509769,-0.15562311,-2.492364,0.0012217305,0.0030543262,-6.1086525E-4,TONIC,858092540784
1776116915969,1507101320979857,9.504981,-0.1436521,-2.4779987,-0.0012217305,0.0030543262,6.1086525E-4,TONIC,858092540784
1776116915977,1507101328951545,9.514558,-0.15801731,-2.5019407,-6.1086525E-4,-6.1086525E-4,6.1086525E-4,TONIC,858092540784
1776116915985,1507101336917696,9.509769,-0.14844051,-2.4756045,-6.1086525E-4,6.1086525E-4,6.1086525E-4,TONIC,858092540784
1776116915993,1507101344912077,9.509769,-0.1412579,-2.4971523,-6.1086525E-4,0.0012217305,0.0012217305,TONIC,858092540784
1776116916001,1507101352992766,9.488221,-0.14604631,-2.4899697,-0.0018325958,-0.0012217305,0.0012217305,TONIC,858092540784
1776116916009,1507101360933378,9.500193,-0.12210429,-2.4851813,0.0,0.0,-6.1086525E-4,TONIC,858092540784
1776116916018,1507101369075528,9.483433,-0.1340753,-2.5091233,-0.0018325958,6.1086525E-4,6.1086525E-4,TONIC,858092540784
1776116916025,1507101376925987,9.483433,-0.14604631,-2.4995465,6.1086525E-4,0.0018325958,0.0,TONIC,858092540784
1776116916034,1507101385005675,9.495404,-0.15562311,-2.4971523,0.0012217305,0.0030543262,0.0018325958,TONIC,858092540784
1776116916041,1507101392946826,9.495404,-0.1316811,-2.4899697,6.1086525E-4,0.0030543262,6.1086525E-4,TONIC,858092540784
1776116916049,1507101400942592,9.516952,-0.1436521,-2.4971523,6.1086525E-4,6.1086525E-4,0.0,TONIC,858092540784
1776116916058,1507101409091819,9.509769,-0.1412579,-2.480393,-6.1086525E-4,0.002443461,0.0012217305,TONIC,858092540784
1776116916065,1507101416957662,9.495404,-0.15322891,-2.4851813,-0.0030543262,0.0,0.0018325958,TONIC,858092540784
1776116916073,1507101424960428,9.509769,-0.1436521,-2.4995465,-0.0012217305,0.0,0.0030543262,TONIC,858092540784
1776116916081,1507101432953886,9.52174,-0.1340753,-2.4851813,-0.0030543262,-6.1086525E-4,0.0018325958,TONIC,858092540784
1776116916089,1507101440951191,9.502586,-0.1604115,-2.4971523,0.0,0.0,0.0030543262,TONIC,858092540784
1776116916098,1507101449001033,9.507375,-0.15083471,-2.4995465,-0.0018325958,6.1086525E-4,0.0018325958,TONIC,858092540784
1776116916105,1507101456909876,9.49301,-0.15322891,-2.4971523,-6.1086525E-4,0.0018325958,0.0030543262,TONIC,858092540784
1776116916113,1507101464905565,9.516952,-0.1604115,-2.492364,0.0,0.0012217305,0.0018325958,TONIC,858092540784
1776116916121,1507101472931484,9.502586,-0.18914193,-2.4779987,-0.002443461,0.0012217305,0.0018325958,TONIC,858092540784
1776116916129,1507101480929020,9.524135,-0.1604115,-2.5067291,-6.1086525E-4,0.0012217305,0.0018325958,TONIC,858092540784
1776116916138,1507101489009631,9.514558,-0.17717093,-2.4636335,0.0,-0.0012217305,0.0012217305,TONIC,858092540784
1776116916145,1507101496918782,9.516952,-0.17477672,-2.4947581,0.0012217305,-0.0012217305,0.0,TONIC,858092540784
1776116916153,1507101504947164,9.533711,-0.16998832,-2.4971523,-0.0018325958,-0.0012217305,-0.0018325958,TONIC,858092540784
1776116916162,1507101513033621,9.500193,-0.16759412,-2.4995465,-0.0012217305,-0.0012217305,-6.1086525E-4,TONIC,858092540784
1776116916169,1507101520937926,9.500193,-0.16998832,-2.492364,-6.1086525E-4,0.0,-0.002443461,TONIC,858092540784
1776116916177,1507101528957230,9.509769,-0.1436521,-2.4899697,0.0,6.1086525E-4,-0.004276057,TONIC,858092540784
1776116916185,1507101536928919,9.519346,-0.15801731,-2.4971523,6.1086525E-4,0.0,-0.0030543262,TONIC,858092540784
1776116916193,1507101544922839,9.488221,-0.16280572,-2.5019407,-0.002443461,0.0,-0.0012217305,TONIC,858092540784
1776116916202,1507101553010527,9.495404,-0.14604631,-2.4995465,-0.0018325958,0.002443461,-0.0012217305,TONIC,858092540784
1776116916209,1507101560945601,9.512163,-0.1412579,-2.4947581,6.1086525E-4,0.002443461,-0.0018325958,TONIC,858092540784
1776116916217,1507101568996290,9.514558,-0.16280572,-2.4995465,0.0,0.004276057,-0.002443461,TONIC,858092540784
1776116916225,1507101576905518,9.502586,-0.1412579,-2.504335,6.1086525E-4,0.004276057,-0.002443461,TONIC,858092540784
1776116916233,1507101584987361,9.519346,-0.15562311,-2.492364,-0.002443461,0.0030543262,-0.0012217305,TONIC,858092540784
1776116916241,1507101592926741,9.500193,-0.1364695,-2.4899697,0.0,0.004276057,-0.0030543262,TONIC,858092540784
1776116916249,1507101600978508,9.504981,-0.12449849,-2.5187001,-6.1086525E-4,0.0030543262,-0.0030543262,TONIC,858092540784
1776116916257,1507101608918120,9.509769,-0.11731588,-2.4995465,0.0,0.004276057,-0.0012217305,TONIC,858092540784
1776116916265,1507101616944347,9.507375,-0.12210429,-2.4875755,0.0012217305,0.005497787,-0.002443461,TONIC,858092540784
1776116916273,1507101624938498,9.495404,-0.1316811,-2.4899697,0.0,0.005497787,0.0,TONIC,858092540784
1776116916281,1507101632935417,9.509769,-0.1364695,-2.480393,0.0,0.0061086523,6.1086525E-4,TONIC,858092540784
1776116916289,1507101640931952,9.504981,-0.1364695,-2.4827871,0.0,0.007330383,6.1086525E-4,TONIC,858092540784
1776116916297,1507101648959026,9.507375,-0.1340753,-2.480393,0.0,0.005497787,0.0012217305,TONIC,858092540784
1776116916305,1507101656953868,9.516952,-0.1388637,-2.4779987,0.0,0.004276057,-6.1086525E-4,TONIC,858092540784
1776116916313,1507101664950096,9.514558,-0.14604631,-2.4875755,-0.0012217305,0.004276057,0.0012217305,TONIC,858092540784
1776116916321,1507101672944938,9.495404,-0.1388637,-2.4779987,-6.1086525E-4,0.0012217305,0.0018325958,TONIC,858092540784
1776116916329,1507101680932243,9.507375,-0.1364695,-2.4756045,-0.0012217305,-0.0012217305,0.0030543262,TONIC,858092540784
1776116916337,1507101688935394,9.502586,-0.1340753,-2.4827871,6.1086525E-4,-6.1086525E-4,0.0030543262,TONIC,858092540784
1776116916345,1507101696956313,9.504981,-0.15083471,-2.492364,-0.0012217305,-0.0012217305,0.002443461,TONIC,858092540784
1776116916353,1507101704926464,9.507375,-0.16519992,-2.4947581,-0.0018325958,-6.1086525E-4,0.002443461,TONIC,858092540784
1776116916361,1507101712952306,9.504981,-0.1388637,-2.480393,-6.1086525E-4,-0.002443461,0.0030543262,TONIC,858092540784
1776116916369,1507101720920534,9.509769,-0.1364695,-2.480393,-6.1086525E-4,-6.1086525E-4,0.002443461,TONIC,858092540784
1776116916377,1507101728943915,9.500193,-0.1340753,-2.4899697,-0.0012217305,-0.0036651916,0.004276057,TONIC,858092540784
1776116916385,1507101736939065,9.507375,-0.1364695,-2.4995465,-0.0012217305,-0.002443461,0.0036651916,TONIC,858092540784
1776116916393,1507101744935601,9.502586,-0.1364695,-2.5067291,-6.1086525E-4,-0.004886922,0.002443461,TONIC,858092540784
1776116916401,1507101752930675,9.526528,-0.15801731,-2.5115175,-6.1086525E-4,-0.002443461,0.002443461,TONIC,858092540784
1776116916409,1507101760959286,9.507375,-0.1436521,-2.4995465,0.0,-0.0036651916,0.0030543262,TONIC,858092540784
1776116916418,1507101769069437,9.509769,-0.16998832,-2.4875755,-6.1086525E-4,-0.004276057,0.0012217305,TONIC,858092540784
1776116916425,1507101776950741,9.502586,-0.14844051,-2.4947581,0.0,0.0,0.0012217305,TONIC,858092540784
1776116916433,1507101784914430,9.509769,-0.15083471,-2.4971523,-6.1086525E-4,-0.0030543262,0.0012217305,TONIC,858092540784
1776116916441,1507101792903581,9.504981,-0.15322891,-2.4995465,-6.1086525E-4,-0.002443461,0.0012217305,TONIC,858092540784
1776116916449,1507101800937192,9.507375,-0.16280572,-2.480393,0.0,0.0012217305,6.1086525E-4,TONIC,858092540784
1776116916457,1507101808930651,9.500193,-0.16759412,-2.4899697,0.0,-0.002443461,-6.1086525E-4,TONIC,858092540784
1776116916466,1507101817016878,9.500193,-0.16759412,-2.4827871,6.1086525E-4,-0.0036651916,-0.0012217305,TONIC,858092540784
1776116916474,1507101825007952,9.504981,-0.1436521,-2.5019407,-0.0012217305,-0.0030543262,6.1086525E-4,TONIC,858092540784
1776116916481,1507101832918949,9.528923,-0.1604115,-2.4971523,-6.1086525E-4,-0.004276057,6.1086525E-4,TONIC,858092540784
1776116916489,1507101840946022,9.507375,-0.15801731,-2.4947581,0.002443461,0.0,0.0,TONIC,858092540784
1776116916497,1507101848964249,9.504981,-0.14604631,-2.4947581,0.0,-0.0030543262,-0.0012217305,TONIC,858092540784
1776116916505,1507101856934630,9.495404,-0.14844051,-2.5019407,0.0,-0.0012217305,-0.0012217305,TONIC,858092540784
1776116916513,1507101864933089,9.52174,-0.1436521,-2.5187001,0.0012217305,0.0018325958,-0.0012217305,TONIC,858092540784
1776116916521,1507101872925778,9.507375,-0.1388637,-2.504335,0.0,0.0030543262,-0.0036651916,TONIC,858092540784
1776116916529,1507101880953466,9.500193,-0.15801731,-2.4851813,6.1086525E-4,0.0030543262,-0.0012217305,TONIC,858092540784
1776116916537,1507101888947002,9.507375,-0.15322891,-2.4899697,-6.1086525E-4,0.0012217305,-6.1086525E-4,TONIC,858092540784
1776116916546,1507101897059921,9.504981,-0.16519992,-2.4827871,-6.1086525E-4,0.004276057,-6.1086525E-4,TONIC,858092540784
1776116916553,1507101904909995,9.514558,-0.15083471,-2.4899697,6.1086525E-4,0.0030543262,-0.0012217305,TONIC,858092540784
1776116916561,1507101912990299,9.512163,-0.1412579,-2.4995465,0.0012217305,0.0030543262,-6.1086525E-4,TONIC,858092540784
1776116916569,1507101920930603,9.507375,-0.14844051,-2.4947581,-6.1086525E-4,0.0030543262,-6.1086525E-4,TONIC,858092540784
1776116916578,1507101929042369,9.507375,-0.1388637,-2.504335,6.1086525E-4,0.004886922,0.0,TONIC,858092540784
1776116916585,1507101936923597,9.49301,-0.1436521,-2.5019407,0.0,0.0036651916,0.0,TONIC,858092540784
1776116916593,1507101944948132,9.507375,-0.1340753,-2.4756045,-0.0018325958,0.005497787,-0.0012217305,TONIC,858092540784
1776116916602,1507101953059821,9.516952,-0.1436521,-2.4875755,6.1086525E-4,0.0036651916,-6.1086525E-4,TONIC,858092540784
1776116916609,1507101960909048,9.504981,-0.16519992,-2.4971523,-0.0030543262,0.004886922,0.0,TONIC,858092540784
1776116916618,1507101969050968,9.514558,-0.1436521,-2.4827871,-0.0018325958,0.0030543262,0.0012217305,TONIC,858092540784
1776116916625,1507101976930273,9.504981,-0.14844051,-2.4899697,0.0,0.004276057,6.1086525E-4,TONIC,858092540784
1776116916633,1507101984957346,9.507375,-0.14604631,-2.4899697,-0.0018325958,0.002443461,6.1086525E-4,TONIC,858092540784
1776116916641,1507101992921958,9.514558,-0.1388637,-2.4899697,-0.0012217305,0.0036651916,0.0012217305,TONIC,858092540784
1776116916649,1507102000918031,9.524135,-0.14844051,-2.4899697,-6.1086525E-4,0.004886922,6.1086525E-4,TONIC,858092540784
1776116916657,1507102008967874,9.516952,-0.1436521,-2.4899697,-6.1086525E-4,0.004886922,6.1086525E-4,TONIC,858092540784
1776116916665,1507102016938871,9.524135,-0.14604631,-2.4779987,-6.1086525E-4,0.004886922,0.0012217305,TONIC,858092540784
1776116916673,1507102024903175,9.507375,-0.1436521,-2.4779987,6.1086525E-4,0.0030543262,0.0012217305,TONIC,858092540784
1776116916681,1507102032930018,9.495404,-0.1340753,-2.4827871,0.0,0.0036651916,0.0018325958,TONIC,858092540784
1776116916689,1507102040947860,9.500193,-0.14604631,-2.4660277,-6.1086525E-4,0.0,0.0018325958,TONIC,858092540784
1776116916697,1507102048919857,9.504981,-0.1364695,-2.504335,-6.1086525E-4,-0.0030543262,0.0012217305,TONIC,858092540784
1776116916705,1507102056946316,9.485827,-0.1340753,-2.4971523,-0.0012217305,-0.004886922,0.002443461,TONIC,858092540784
1776116916713,1507102064967773,9.490616,-0.14844051,-2.5091233,0.0,-0.004886922,0.0018325958,TONIC,858092540784
1776116916721,1507102072937924,9.507375,-0.15801731,-2.4947581,0.0,-0.0030543262,0.0018325958,TONIC,858092540784
1776116916729,1507102080934306,9.519346,-0.15562311,-2.492364,-6.1086525E-4,0.0,0.0012217305,TONIC,858092540784
1776116916738,1507102089045994,9.516952,-0.1412579,-2.5091233,-0.0018325958,-6.1086525E-4,0.0012217305,TONIC,858092540784
1776116916745,1507102096957683,9.509769,-0.15801731,-2.4875755,0.0018325958,0.002443461,0.0,TONIC,858092540784
1776116916753,1507102104951526,9.52174,-0.15083471,-2.5019407,0.0012217305,0.0030543262,0.0,TONIC,858092540784
1776116916761,1507102112946215,9.516952,-0.16280572,-2.504335,0.0012217305,0.0018325958,0.0,TONIC,858092540784
1776116916769,1507102120912366,9.526528,-0.1340753,-2.4851813,-0.0018325958,0.0030543262,-6.1086525E-4,TONIC,858092540784
1776116916778,1507102129089054,9.497798,-0.14844051,-2.4995465,6.1086525E-4,0.004276057,6.1086525E-4,TONIC,858092540784
1776116916785,1507102136958590,9.519346,-0.16519992,-2.4899697,0.0030543262,0.002443461,0.0,TONIC,858092540784
1776116916793,1507102144929586,9.531317,-0.1604115,-2.4851813,-6.1086525E-4,-0.0012217305,0.0012217305,TONIC,858092540784
1776116916801,1507102152925275,9.502586,-0.15083471,-2.4851813,-0.0012217305,-0.0012217305,6.1086525E-4,TONIC,858092540784
1776116916809,1507102160953272,9.531317,-0.1364695,-2.4827871,-0.0018325958,-0.0018325958,-0.0012217305,TONIC,858092540784
1776116916818,1507102169001960,9.495404,-0.1340753,-2.4732103,6.1086525E-4,-0.0018325958,0.0,TONIC,858092540784
1776116916825,1507102176912957,9.519346,-0.11731588,-2.492364,0.0012217305,-0.0036651916,-6.1086525E-4,TONIC,858092540784
1776116916833,1507102184906876,9.490616,-0.1364695,-2.5019407,6.1086525E-4,-0.002443461,-6.1086525E-4,TONIC,858092540784
1776116916841,1507102192932720,9.502586,-0.1364695,-2.4732103,0.0,-0.005497787,0.002443461,TONIC,858092540784
1776116916849,1507102200984409,9.502586,-0.1340753,-2.4875755,6.1086525E-4,-0.0018325958,0.0,TONIC,858092540784
1776116916857,1507102208924943,9.497798,-0.1340753,-2.480393,-6.1086525E-4,-0.0030543262,0.0012217305,TONIC,858092540784
1776116916865,1507102216951171,9.502586,-0.1388637,-2.4947581,0.004886922,-0.0012217305,0.0018325958,TONIC,858092540784
1776116916873,1507102224971167,9.497798,-0.14604631,-2.504335,-6.1086525E-4,-0.002443461,0.0018325958,TONIC,858092540784
1776116916881,1507102232943472,9.495404,-0.1436521,-2.480393,-0.0018325958,-0.005497787,0.0036651916,TONIC,858092540784
1776116916889,1507102240907392,9.507375,-0.15801731,-2.4827871,-0.0012217305,-0.0067195175,0.0036651916,TONIC,858092540784
1776116916897,1507102248988619,9.502586,-0.1316811,-2.4756045,0.0018325958,-0.0061086523,0.004886922,TONIC,858092540784
1776116916905,1507102256929616,9.502586,-0.15322891,-2.4899697,-0.0012217305,-0.005497787,0.004276057,TONIC,858092540784
1776116916914,1507102265010227,9.512163,-0.16519992,-2.4947581,-0.0012217305,-0.007330383,0.004276057,TONIC,858092540784
1776116916921,1507102272951993,9.528923,-0.16280572,-2.4971523,-0.0012217305,-0.004886922,0.002443461,TONIC,858092540784
1776116916929,1507102280917837,9.52174,-0.15562311,-2.4947581,-6.1086525E-4,-0.004276057,0.0018325958,TONIC,858092540784
1776116916937,1507102288996986,9.512163,-0.16998832,-2.4947581,-0.0030543262,-0.004886922,0.0030543262,TONIC,858092540784
1776116916945,1507102296908368,9.504981,-0.17238252,-2.5019407,-6.1086525E-4,-0.002443461,-0.0012217305,TONIC,858092540784
1776116916953,1507102304933288,9.524135,-0.16280572,-2.5067291,0.0,-0.0012217305,0.0,TONIC,858092540784
1776116916961,1507102312927746,9.519346,-0.15562311,-2.5067291,-0.0012217305,-0.004276057,0.0012217305,TONIC,858092540784
1776116916969,1507102320955050,9.509769,-0.15083471,-2.4971523,-6.1086525E-4,-0.0018325958,-6.1086525E-4,TONIC,858092540784
1776116916977,1507102328949508,9.507375,-0.15562311,-2.5019407,-0.0012217305,-6.1086525E-4,0.0018325958,TONIC,858092540784
1776116916985,1507102336945197,9.490616,-0.16759412,-2.516306,0.0,-0.0012217305,-0.0018325958,TONIC,858092540784
1776116916993,1507102344996887,9.509769,-0.14844051,-2.5139117,0.0,-0.002443461,-6.1086525E-4,TONIC,858092540784
1776116917001,1507102352905267,9.500193,-0.15083471,-2.504335,6.1086525E-4,0.0012217305,-0.0012217305,TONIC,858092540784
1776116917009,1507102360934495,9.516952,-0.14844051,-2.5234885,-0.002443461,6.1086525E-4,-6.1086525E-4,TONIC,858092540784
1776116917017,1507102368950799,9.516952,-0.1604115,-2.5067291,-0.0012217305,0.004886922,-6.1086525E-4,TONIC,858092540784
1776116917025,1507102376925180,9.509769,-0.15562311,-2.5067291,0.0,0.0067195175,-0.0018325958,TONIC,858092540784
1776116917033,1507102384921177,9.519346,-0.15562311,-2.4851813,-0.0012217305,0.007330383,-0.0018325958,TONIC,858092540784
1776116917041,1507102392944635,9.497798,-0.15322891,-2.492364,0.0012217305,0.007941248,-0.0036651916,TONIC,858092540784
1776116917049,1507102400940863,9.502586,-0.1412579,-2.4899697,-0.002443461,0.0067195175,-0.0030543262,TONIC,858092540784
1776116917057,1507102408961551,9.516952,-0.15322891,-2.4732103,6.1086525E-4,0.005497787,-0.004276057,TONIC,858092540784
1776116917065,1507102416933471,9.519346,-0.12689269,-2.4851813,-0.0012217305,0.0030543262,-0.0036651916,TONIC,858092540784
1776116917073,1507102424928930,9.502586,-0.11731588,-2.4947581,-0.0012217305,0.0018325958,-0.0036651916,TONIC,858092540784
1776116917081,1507102432946080,9.504981,-0.11492168,-2.5019407,-0.0030543262,0.0018325958,-0.0018325958,TONIC,858092540784
1776116917089,1507102440920923,9.507375,-0.11971009,-2.480393,0.0018325958,0.0061086523,-0.0018325958,TONIC,858092540784
1776116917098,1507102449000611,9.507375,-0.11492168,-2.492364,0.0,0.007941248,-0.0018325958,TONIC,858092540784
1776116917105,1507102456911300,9.500193,-0.11731588,-2.4779987,0.0,0.007941248,0.0012217305,TONIC,858092540784
1776116917113,1507102464937144,9.512163,-0.11971009,-2.4660277,0.0,0.007330383,0.0012217305,TONIC,858092540784
1776116917121,1507102472931370,9.514558,-0.1388637,-2.4540567,0.0012217305,0.004276057,0.0018325958,TONIC,858092540784
1776116917129,1507102480958983,9.509769,-0.1412579,-2.4660277,0.0,-0.0012217305,0.0030543262,TONIC,858092540784
1776116917137,1507102488952595,9.514558,-0.1340753,-2.4779987,0.0,-6.1086525E-4,0.0018325958,TONIC,858092540784
1776116917145,1507102496948514,9.509769,-0.1412579,-2.4779987,6.1086525E-4,-0.0030543262,0.0018325958,TONIC,858092540784
1776116917153,1507102504943973,9.504981,-0.1388637,-2.4851813,-6.1086525E-4,-0.004276057,0.0030543262,TONIC,858092540784
1776116917161,1507102512939584,9.502586,-0.1340753,-2.480393,-0.002443461,-0.0061086523,0.004276057,TONIC,858092540784
1776116917169,1507102520937504,9.5385,-0.12689269,-2.5019407,0.0,-0.005497787,0.0030543262,TONIC,858092540784
1776116917177,1507102528932501,9.519346,-0.1436521,-2.4947581,0.0,-0.0061086523,0.0036651916,TONIC,858092540784
1776116917185,1507102536925805,9.528923,-0.1604115,-2.4995465,0.0,-0.005497787,0.004276057,TONIC,858092540784
1776116917193,1507102544952571,9.504981,-0.14844051,-2.492364,0.0,-0.007330383,0.002443461,TONIC,858092540784
1776116917201,1507102552948260,9.497798,-0.16280572,-2.4947581,0.0012217305,-0.0061086523,0.0036651916,TONIC,858092540784
1776116917209,1507102560945488,9.502586,-0.14844051,-2.4995465,-6.1086525E-4,-0.0067195175,0.0018325958,TONIC,858092540784
1776116917217,1507102568939561,9.509769,-0.14844051,-2.5019407,-6.1086525E-4,-0.0067195175,0.0018325958,TONIC,858092540784
1776116917225,1507102576935634,9.488221,-0.15801731,-2.4947581,-6.1086525E-4,-0.0067195175,0.0030543262,TONIC,858092540784
1776116917233,1507102584931324,9.502586,-0.1604115,-2.4971523,0.0,-0.0061086523,0.0018325958,TONIC,858092540784
1776116917241,1507102592958012,9.519346,-0.15801731,-2.504335,-0.0012217305,-0.005497787,0.002443461,TONIC,858092540784
1776116917249,1507102600954624,9.516952,-0.16759412,-2.5019407,0.0,-0.004276057,6.1086525E-4,TONIC,858092540784
1776116917257,1507102608947929,9.526528,-0.16759412,-2.5139117,-0.0012217305,-0.0030543262,0.0,TONIC,858092540784
1776116917265,1507102616943848,9.524135,-0.15801731,-2.4947581,-6.1086525E-4,-0.0036651916,6.1086525E-4,TONIC,858092540784
1776116917273,1507102624939307,9.531317,-0.16759412,-2.4971523,0.0,-0.004276057,0.0012217305,TONIC,858092540784
1776116917281,1507102632934612,9.502586,-0.17477672,-2.5019407,0.0,-0.002443461,0.0,TONIC,858092540784
1776116917289,1507102640931300,9.497798,-0.15322891,-2.492364,-0.0012217305,-0.0012217305,0.0,TONIC,858092540784
1776116917297,1507102648927297,9.504981,-0.15322891,-2.5139117,-6.1086525E-4,-6.1086525E-4,-0.002443461,TONIC,858092540784
1776116917305,1507102656952216,9.504981,-0.15083471,-2.4851813,-0.0030543262,6.1086525E-4,-0.0018325958,TONIC,858092540784
1776116917313,1507102664917367,9.500193,-0.15083471,-2.492364,-6.1086525E-4,0.004276057,-0.0012217305,TONIC,858092540784
1776116917321,1507102672936210,9.500193,-0.1412579,-2.5091233,0.0,0.004276057,-6.1086525E-4,TONIC,858092540784
1776116917329,1507102680911206,9.504981,-0.14604631,-2.5139117,-6.1086525E-4,0.009773844,-0.002443461,TONIC,858092540784
1776116917337,1507102688960203,9.504981,-0.14604631,-2.5019407,0.0,0.007330383,-6.1086525E-4,TONIC,858092540784
1776116917345,1507102696931199,9.509769,-0.12928689,-2.4947581,-0.0012217305,0.01038471,-0.0018325958,TONIC,858092540784
1776116917353,1507102704924735,9.516952,-0.14604631,-2.4875755,-0.0018325958,0.010995574,-6.1086525E-4,TONIC,858092540784
1776116917361,1507102712977655,9.49301,-0.1364695,-2.480393,-6.1086525E-4,0.012217305,-0.0012217305,TONIC,858092540784
1776116917369,1507102720950343,9.514558,-0.11971009,-2.4899697,0.0,0.01038471,-6.1086525E-4,TONIC,858092540784
1776116917378,1507102729029955,9.502586,-0.15083471,-2.4756045,0.0,0.012217305,6.1086525E-4,TONIC,858092540784
1776116917385,1507102736911182,9.507375,-0.1412579,-2.4756045,-0.0018325958,0.008552114,-0.0018325958,TONIC,858092540784
1776116917394,1507102745051564,9.519346,-0.14604631,-2.480393,-0.0012217305,0.008552114,6.1086525E-4,TONIC,858092540784
1776116917401,1507102752931253,9.507375,-0.12928689,-2.4660277,0.0030543262,0.007941248,6.1086525E-4,TONIC,858092540784
1776116917409,1507102760957711,9.509769,-0.1412579,-2.4851813,0.002443461,0.009162978,0.0,TONIC,858092540784
1776116917418,1507102769007862,9.507375,-0.15083471,-2.4756045,-6.1086525E-4,0.004886922,0.002443461,TONIC,858092540784
1776116917425,1507102776917012,9.528923,-0.1340753,-2.4492683,-0.0012217305,0.0036651916,0.002443461,TONIC,858092540784
1776116917433,1507102784912393,9.509769,-0.1388637,-2.480393,-6.1086525E-4,0.0018325958,0.0018325958,TONIC,858092540784
1776116917441,1507102792909390,9.500193,-0.14844051,-2.4899697,0.0,0.0012217305,0.0036651916,TONIC,858092540784
1776116917449,1507102800936386,9.516952,-0.14604631,-2.480393,0.0,-0.002443461,0.004276057,TONIC,858092540784
1776116917457,1507102808985922,9.509769,-0.15562311,-2.4732103,0.0,-0.0018325958,0.002443461,TONIC,858092540784
1776116917465,1507102816925611,9.512163,-0.14604631,-2.4756045,-0.0012217305,-0.0018325958,0.0012217305,TONIC,858092540784
1776116917473,1507102824951453,9.531317,-0.15801731,-2.4756045,-6.1086525E-4,-0.0036651916,0.0030543262,TONIC,858092540784
1776116917481,1507102832947142,9.509769,-0.15083471,-2.4899697,-0.0030543262,-0.007330383,0.002443461,TONIC,858092540784
1776116917489,1507102840944138,9.514558,-0.14844051,-2.4875755,-0.0036651916,-0.007330383,0.0018325958,TONIC,858092540784
1776116917497,1507102848963828,9.526528,-0.15562311,-2.4827871,-0.0012217305,-0.004886922,0.0018325958,TONIC,858092540784
1776116917505,1507102856933902,9.504981,-0.1412579,-2.468422,0.0,-0.004886922,0.002443461,TONIC,858092540784
1776116917513,1507102864929052,9.504981,-0.15801731,-2.4636335,-6.1086525E-4,-0.0061086523,0.002443461,TONIC,858092540784
1776116917521,1507102872955741,9.507375,-0.1604115,-2.4851813,0.0,-0.007330383,0.002443461,TONIC,858092540784
1776116917529,1507102880953275,9.49301,-0.15322891,-2.4827871,-0.0012217305,-0.01160644,0.002443461,TONIC,858092540784
1776116917538,1507102889033349,9.516952,-0.16998832,-2.4947581,-6.1086525E-4,-0.01160644,0.0018325958,TONIC,858092540784
1776116917545,1507102896914808,9.502586,-0.16998832,-2.5115175,-0.002443461,-0.013439035,0.0018325958,TONIC,858092540784
1776116917554,1507102905024650,9.504981,-0.16280572,-2.5091233,-0.002443461,-0.012217305,6.1086525E-4,TONIC,858092540784
1776116917561,1507102912933955,9.497798,-0.15562311,-2.516306,0.0,-0.008552114,-6.1086525E-4,TONIC,858092540784
1776116917569,1507102920985335,9.514558,-0.15562311,-2.5115175,6.1086525E-4,-0.0067195175,6.1086525E-4,TONIC,858092540784
1776116917577,1507102928925640,9.49301,-0.1388637,-2.5139117,6.1086525E-4,-0.004886922,-6.1086525E-4,TONIC,858092540784
1776116917585,1507102936950791,9.52174,-0.14844051,-2.5234885,6.1086525E-4,-0.0030543262,6.1086525E-4,TONIC,858092540784
1776116917593,1507102944947710,9.495404,-0.1388637,-2.4947581,-0.002443461,-0.0012217305,-6.1086525E-4,TONIC,858092540784
1776116917601,1507102952911707,9.495404,-0.14604631,-2.5019407,-0.0012217305,0.004276057,0.0,TONIC,858092540784
1776116917609,1507102960940319,9.495404,-0.1340753,-2.4995465,0.0,0.004886922,6.1086525E-4,TONIC,858092540784
1776116917617,1507102968933239,9.504981,-0.1436521,-2.4875755,0.0012217305,0.007330383,0.0,TONIC,858092540784
1776116917626,1507102977076620,9.488221,-0.14844051,-2.492364,6.1086525E-4,0.008552114,0.002443461,TONIC,858092540784
1776116917633,1507102984925309,9.490616,-0.14844051,-2.492364,0.0,0.009773844,0.002443461,TONIC,858092540784
1776116917641,1507102992950536,9.509769,-0.15562311,-2.4875755,0.0,0.004886922,0.0018325958,TONIC,858092540784
1776116917649,1507103000946456,9.495404,-0.1388637,-2.4851813,-6.1086525E-4,0.004886922,0.002443461,TONIC,858092540784
1776116917657,1507103008941529,9.497798,-0.1436521,-2.4971523,-6.1086525E-4,0.004276057,0.002443461,TONIC,858092540784
1776116917665,1507103016938526,9.512163,-0.12689269,-2.492364,-6.1086525E-4,0.004886922,0.0030543262,TONIC,858092540784
1776116917673,1507103024931753,9.516952,-0.1388637,-2.480393,0.0,0.004886922,0.0036651916,TONIC,858092540784
1776116917681,1507103032930212,9.526528,-0.1436521,-2.4899697,6.1086525E-4,0.004276057,6.1086525E-4,TONIC,858092540784
1776116917689,1507103040957286,9.516952,-0.16519992,-2.4851813,-0.0012217305,0.0012217305,0.0036651916,TONIC,858092540784
1776116917697,1507103048953205,9.516952,-0.1388637,-2.4779987,0.0,0.0018325958,0.0018325958,TONIC,858092540784
1776116917705,1507103056947048,9.509769,-0.15801731,-2.480393,-0.0012217305,6.1086525E-4,0.004276057,TONIC,858092540784
1776116917713,1507103064997813,9.514558,-0.15801731,-2.4875755,-0.0012217305,-0.0012217305,0.0036651916,TONIC,858092540784
1776116917721,1507103072906810,9.512163,-0.15562311,-2.4875755,-0.0018325958,-0.0036651916,0.004276057,TONIC,858092540784
1776116917729,1507103080935653,9.509769,-0.17477672,-2.4756045,-0.0012217305,-0.004886922,0.0030543262,TONIC,858092540784
1776116917738,1507103089045572,9.497798,-0.1604115,-2.4947581,0.0012217305,-0.004276057,0.004886922,TONIC,858092540784
1776116917745,1507103096956569,9.504981,-0.16519992,-2.4756045,-0.002443461,-0.004886922,0.002443461,TONIC,858092540784
1776116917753,1507103104922181,9.533711,-0.16280572,-2.4971523,0.0,-0.002443461,0.0036651916,TONIC,858092540784
1776116917761,1507103112946101,9.519346,-0.15801731,-2.4851813,-6.1086525E-4,-0.0036651916,0.002443461,TONIC,858092540784
1776116917769,1507103120911944,9.519346,-0.17238252,-2.4947581,0.0012217305,-6.1086525E-4,0.0018325958,TONIC,858092540784
1776116917778,1507103129023632,9.502586,-0.15083471,-2.4851813,-0.0018325958,-0.002443461,0.002443461,TONIC,858092540784
1776116917785,1507103136935322,9.516952,-0.18195933,-2.4827871,-0.0012217305,-6.1086525E-4,0.0,TONIC,858092540784
1776116917793,1507103144928857,9.526528,-0.15562311,-2.5091233,-0.0012217305,-0.0036651916,6.1086525E-4,TONIC,858092540784
1776116917802,1507103153010392,9.504981,-0.17956513,-2.4827871,-6.1086525E-4,-0.002443461,-6.1086525E-4,TONIC,858092540784
1776116917809,1507103160921850,9.504981,-0.16280572,-2.4851813,6.1086525E-4,0.0,-0.0012217305,TONIC,858092540784
1776116917818,1507103169001539,9.512163,-0.1604115,-2.504335,0.0018325958,0.0018325958,-0.0012217305,TONIC,858092540784
1776116917825,1507103176911997,9.512163,-0.1604115,-2.5139117,-0.0012217305,-0.0012217305,-0.002443461,TONIC,858092540784
1776116917834,1507103185023302,9.504981,-0.15801731,-2.4899697,0.0,0.0012217305,-0.002443461,TONIC,858092540784
1776116917841,1507103192933759,9.49301,-0.15083471,-2.492364,-6.1086525E-4,0.0,-0.0018325958,TONIC,858092540784
1776116917849,1507103200930064,9.519346,-0.1412579,-2.4995465,-0.002443461,0.0018325958,0.0,TONIC,858092540784
1776116917858,1507103209071291,9.516952,-0.15322891,-2.480393,-0.002443461,0.004276057,-0.002443461,TONIC,858092540784
1776116917865,1507103216949442,9.514558,-0.1412579,-2.4827871,-0.0012217305,0.0061086523,-0.0030543262,TONIC,858092540784
1776116917873,1507103224914747,9.524135,-0.15083471,-2.4779987,0.0,0.005497787,-0.0018325958,TONIC,858092540784
1776116917881,1507103232910666,9.507375,-0.16280572,-2.4827871,6.1086525E-4,0.0012217305,-0.0012217305,TONIC,858092540784
1776116917889,1507103240937817,9.495404,-0.15801731,-2.468422,0.0,-6.1086525E-4,-0.0018325958,TONIC,858092540784
1776116917897,1507103248988197,9.504981,-0.1388637,-2.492364,-0.0012217305,-6.1086525E-4,-0.002443461,TONIC,858092540784
1776116917905,1507103256927656,9.502586,-0.14844051,-2.4971523,0.0,-0.0030543262,-0.0030543262,TONIC,858092540784
1776116917913,1507103264953499,9.512163,-0.12928689,-2.4947581,0.0018325958,-6.1086525E-4,-0.0012217305,TONIC,858092540784
1776116917922,1507103273035956,9.500193,-0.11971009,-2.4947581,6.1086525E-4,0.0018325958,-0.0030543262,TONIC,858092540784
1776116917929,1507103280915877,9.512163,-0.11492168,-2.4947581,6.1086525E-4,0.004276057,0.0,TONIC,858092540784
1776116917938,1507103289057719,9.488221,-0.11492168,-2.4779987,6.1086525E-4,0.004886922,-6.1086525E-4,TONIC,858092540784
1776116917945,1507103296907023,9.49301,-0.1340753,-2.4899697,-0.002443461,0.0018325958,0.0012217305,TONIC,858092540784
1776116917953,1507103304987867,9.495404,-0.12689269,-2.4971523,-0.0036651916,0.0012217305,0.002443461,TONIC,858092540784
1776116917961,1507103312928555,9.49301,-0.12689269,-2.4851813,-6.1086525E-4,0.0036651916,0.0018325958,TONIC,858092540784
1776116917969,1507103320979013,9.500193,-0.12689269,-2.4732103,6.1086525E-4,0.0030543262,0.0030543262,TONIC,858092540784
1776116917977,1507103328950626,9.49301,-0.12689269,-2.4779987,0.0,0.0018325958,0.0030543262,TONIC,858092540784
1776116917985,1507103336915622,9.512163,-0.11971009,-2.480393,-0.002443461,0.0,0.004886922,TONIC,858092540784
1776116917993,1507103344942004,9.502586,-0.15083471,-2.4947581,0.0036651916,0.0067195175,0.0036651916,TONIC,858092540784
1776116918001,1507103352991923,9.512163,-0.1412579,-2.4779987,0.0036651916,0.0030543262,0.0061086523,TONIC,858092540784
1776116918009,1507103360932766,9.519346,-0.15562311,-2.468422,6.1086525E-4,6.1086525E-4,0.004276057,TONIC,858092540784
1776116918018,1507103369013686,9.509769,-0.17717093,-2.4660277,-6.1086525E-4,6.1086525E-4,0.005497787,TONIC,858092540784
1776116918025,1507103376955528,9.516952,-0.16998832,-2.4756045,6.1086525E-4,0.0,0.004276057,TONIC,858092540784
1776116918033,1507103384921064,9.514558,-0.18674773,-2.480393,-0.0012217305,-0.0036651916,0.004276057,TONIC,858092540784
1776116918041,1507103392944752,9.526528,-0.16519992,-2.4875755,-0.0030543262,-0.005497787,0.002443461,TONIC,858092540784
1776116918049,1507103400942057,9.502586,-0.18195933,-2.4756045,0.0,-0.005497787,0.0030543262,TONIC,858092540784
1776116918057,1507103408991823,9.516952,-0.1604115,-2.4899697,-0.0018325958,-0.005497787,0.002443461,TONIC,858092540784
1776116918065,1507103416932127,9.519346,-0.14604631,-2.4899697,-0.0012217305,-0.0061086523,0.0018325958,TONIC,858092540784
1776116918073,1507103424927508,9.528923,-0.15322891,-2.4947581,-0.0030543262,-0.0061086523,0.0018325958,TONIC,858092540784
1776116918081,1507103432923889,9.526528,-0.16998832,-2.4779987,6.1086525E-4,-0.005497787,0.0018325958,TONIC,858092540784
1776116918089,1507103440919886,9.52174,-0.1604115,-2.4732103,-6.1086525E-4,-0.0061086523,6.1086525E-4,TONIC,858092540784
1776116918098,1507103449000191,9.528923,-0.17238252,-2.4827871,-0.0012217305,-0.004886922,6.1086525E-4,TONIC,858092540784
1776116918105,1507103456909417,9.528923,-0.16280572,-2.4851813,0.0,-0.0061086523,0.0,TONIC,858092540784
1776116918113,1507103464937030,9.519346,-0.14604631,-2.4779987,0.0036651916,-0.004276057,-0.0018325958,TONIC,858092540784
1776116918121,1507103472930950,9.514558,-0.15801731,-2.492364,-0.0012217305,-0.0067195175,-0.0018325958,TONIC,858092540784
1776116918129,1507103480958254,9.514558,-0.16998832,-2.4851813,6.1086525E-4,-0.0061086523,-0.0030543262,TONIC,858092540784
1776116918138,1507103489039251,9.49301,-0.1412579,-2.4875755,-0.0018325958,-0.008552114,-0.0030543262,TONIC,858092540784
1776116918145,1507103496917324,9.507375,-0.1412579,-2.516306,6.1086525E-4,-0.0067195175,-0.002443461,TONIC,858092540784
1776116918153,1507103504969397,9.504981,-0.14844051,-2.5115175,-0.0012217305,-0.007330383,-0.002443461,TONIC,858092540784
1776116918161,1507103512940394,9.502586,-0.15322891,-2.492364,-6.1086525E-4,-0.0061086523,-0.0012217305,TONIC,858092540784
1776116918169,1507103520937621,9.497798,-0.1412579,-2.5091233,-6.1086525E-4,-0.004276057,-0.0012217305,TONIC,858092540784
1776116918178,1507103529017311,9.516952,-0.1364695,-2.504335,0.0018325958,-0.004276057,-0.0012217305,TONIC,858092540784
1776116918185,1507103536926307,9.495404,-0.15322891,-2.5115175,0.0012217305,-0.002443461,-0.0012217305,TONIC,858092540784
1776116918194,1507103545044073,9.495404,-0.15801731,-2.4971523,0.0,0.0,-0.0030543262,TONIC,858092540784
1776116918201,1507103552948070,9.49301,-0.1412579,-2.4995465,6.1086525E-4,0.0,-0.0012217305,TONIC,858092540784
1776116918209,1507103560944066,9.49301,-0.15322891,-2.480393,0.0,0.0,-0.0012217305,TONIC,858092540784
1776116918217,1507103568939140,9.514558,-0.12689269,-2.4947581,-6.1086525E-4,0.0018325958,-6.1086525E-4,TONIC,858092540784
1776116918226,1507103577052059,9.500193,-0.16519992,-2.504335,-6.1086525E-4,0.0012217305,0.0,TONIC,858092540784
1776116918233,1507103584931517,9.495404,-0.1436521,-2.5019407,-6.1086525E-4,0.0012217305,0.0,TONIC,858092540784
1776116918241,1507103592982207,9.514558,-0.1388637,-2.4995465,-6.1086525E-4,0.004276057,-0.0012217305,TONIC,858092540784
1776116918249,1507103600924357,9.516952,-0.1412579,-2.5067291,-6.1086525E-4,-0.0012217305,-6.1086525E-4,TONIC,858092540784
1776116918257,1507103608947738,9.509769,-0.1436521,-2.5019407,-0.002443461,0.0012217305,0.0018325958,TONIC,858092540784
1776116918265,1507103616944350,9.502586,-0.107739076,-2.4899697,-0.0012217305,0.0036651916,0.0012217305,TONIC,858092540784
1776116918273,1507103624910808,9.500193,-0.1364695,-2.4971523,-6.1086525E-4,0.004276057,0.0012217305,TONIC,858092540784
1776116918281,1507103632934882,9.507375,-0.1436521,-2.4971523,-6.1086525E-4,0.0036651916,6.1086525E-4,TONIC,858092540784
1776116918289,1507103640930801,9.495404,-0.1436521,-2.492364,-0.0018325958,0.002443461,6.1086525E-4,TONIC,858092540784
1776116918298,1507103649042875,9.502586,-0.15322891,-2.504335,6.1086525E-4,0.004886922,0.002443461,TONIC,858092540784
1776116918305,1507103656922488,9.507375,-0.15322891,-2.5019407,0.0018325958,0.0036651916,0.0018325958,TONIC,858092540784
1776116918313,1507103664949253,9.502586,-0.17956513,-2.4899697,-6.1086525E-4,0.0018325958,0.0018325958,TONIC,858092540784
1776116918321,1507103672912711,9.52174,-0.15562311,-2.4971523,-6.1086525E-4,0.002443461,6.1086525E-4,TONIC,858092540784
1776116918329,1507103680941323,9.502586,-0.14604631,-2.5067291,0.0012217305,0.0012217305,0.0,TONIC,858092540784
1776116918338,1507103689051474,9.528923,-0.15562311,-2.480393,0.0,0.0018325958,6.1086525E-4,TONIC,858092540784
1776116918345,1507103696931394,9.509769,-0.15801731,-2.4947581,-0.0012217305,0.0030543262,0.0,TONIC,858092540784
1776116918353,1507103704981621,9.512163,-0.18195933,-2.5091233,6.1086525E-4,0.0061086523,-6.1086525E-4,TONIC,858092540784
1776116918361,1507103712885618,9.509769,-0.16998832,-2.4851813,0.0,0.004886922,0.0,TONIC,858092540784
1776116918369,1507103720919152,9.512163,-0.15083471,-2.4779987,0.002443461,0.009162978,-6.1086525E-4,TONIC,858092540784
1776116918377,1507103728968380,9.509769,-0.15562311,-2.4708161,6.1086525E-4,0.0067195175,-0.0018325958,TONIC,858092540784
1776116918385,1507103736939454,9.512163,-0.14844051,-2.480393,6.1086525E-4,0.0061086523,-6.1086525E-4,TONIC,858092540784
1776116918393,1507103744937296,9.504981,-0.14604631,-2.4708161,0.0018325958,0.0067195175,-6.1086525E-4,TONIC,858092540784
1776116918402,1507103753046755,9.507375,-0.15801731,-2.480393,-6.1086525E-4,0.0030543262,6.1086525E-4,TONIC,858092540784
1776116918409,1507103760958443,9.531317,-0.15322891,-2.4899697,6.1086525E-4,0.0036651916,6.1086525E-4,TONIC,858092540784
1776116918418,1507103769037901,9.516952,-0.15322891,-2.4851813,6.1086525E-4,0.0030543262,-0.0012217305,TONIC,858092540784
1776116918425,1507103776919052,9.507375,-0.16519992,-2.4756045,0.0018325958,0.0018325958,-0.0012217305,TONIC,858092540784
1776116918433,1507103784943356,9.519346,-0.1436521,-2.492364,0.0030543262,0.0,0.0,TONIC,858092540784
1776116918441,1507103792938430,9.507375,-0.1436521,-2.4779987,0.0030543262,6.1086525E-4,0.0,TONIC,858092540784
1776116918449,1507103800936888,9.514558,-0.15083471,-2.4612393,0.0,-0.0030543262,-6.1086525E-4,TONIC,858092540784
1776116918458,1507103809046500,9.514558,-0.15801731,-2.4875755,-0.0012217305,-0.0036651916,-6.1086525E-4,TONIC,858092540784
1776116918465,1507103816927728,9.500193,-0.15083471,-2.492364,-6.1086525E-4,-0.0067195175,0.0012217305,TONIC,858092540784
1776116918473,1507103824976647,9.514558,-0.15562311,-2.5019407,0.0,-0.0061086523,0.0012217305,TONIC,858092540784
1776116918481,1507103832948028,9.526528,-0.14844051,-2.4947581,-0.0012217305,-0.004276057,0.0012217305,TONIC,858092540784
1776116918489,1507103840944564,9.507375,-0.15322891,-2.4827871,-0.0012217305,-0.004276057,6.1086525E-4,TONIC,858092540784
1776116918498,1507103849055021,9.507375,-0.15562311,-2.4851813,-0.002443461,-0.0018325958,6.1086525E-4,TONIC,858092540784
1776116918505,1507103856934788,9.516952,-0.14844051,-2.492364,-6.1086525E-4,-0.0018325958,6.1086525E-4,TONIC,858092540784
1776116918513,1507103864959707,9.526528,-0.16519992,-2.4851813,0.0018325958,-6.1086525E-4,-6.1086525E-4,TONIC,858092540784
1776116918521,1507103872926396,9.524135,-0.17477672,-2.4851813,-0.0018325958,-0.0018325958,0.0012217305,TONIC,858092540784
1776116918530,1507103881007009,9.516952,-0.16519992,-2.4899697,-0.002443461,-0.0030543262,6.1086525E-4,TONIC,858092540784
1776116918537,1507103888947697,9.516952,-0.16280572,-2.4995465,-0.0018325958,-6.1086525E-4,-0.0012217305,TONIC,858092540784
1776116918545,1507103896998155,9.52174,-0.16519992,-2.5019407,-0.0030543262,-0.005497787,-0.0018325958,TONIC,858092540784
1776116918553,1507103904938151,9.495404,-0.1604115,-2.4851813,-6.1086525E-4,-0.0018325958,-0.0018325958,TONIC,858092540784
1776116918561,1507103912933456,9.504981,-0.17477672,-2.4995465,0.0,-0.0030543262,6.1086525E-4,TONIC,858092540784
1776116918569,1507103920893453,9.502586,-0.16519992,-2.504335,-0.0012217305,-0.005497787,-0.002443461,TONIC,858092540784
1776116918577,1507103928925757,9.507375,-0.1604115,-2.5019407,-0.0012217305,-0.002443461,-0.0012217305,TONIC,858092540784
1776116918585,1507103936976215,9.509769,-0.16280572,-2.4947581,0.0030543262,-6.1086525E-4,-0.0018325958,TONIC,858092540784
1776116918593,1507103944946135,9.516952,-0.16759412,-2.4779987,-0.0012217305,-0.0036651916,-0.004276057,TONIC,858092540784
1776116918601,1507103952942362,9.516952,-0.15083471,-2.5139117,0.0,-0.0012217305,-0.002443461,TONIC,858092540784
1776116918609,1507103960939052,9.502586,-0.14844051,-2.5115175,-0.0012217305,6.1086525E-4,-0.0030543262,TONIC,858092540784
1776116918617,1507103968958663,9.504981,-0.1436521,-2.4947581,-0.0018325958,6.1086525E-4,-0.0030543262,TONIC,858092540784
1776116918625,1507103976930045,9.507375,-0.1340753,-2.5115175,6.1086525E-4,0.0018325958,-0.0030543262,TONIC,858092540784
1776116918633,1507103984926349,9.497798,-0.1436521,-2.4995465,-0.0012217305,0.004276057,-0.0018325958,TONIC,858092540784
1776116918641,1507103992975884,9.490616,-0.14604631,-2.5091233,-0.0018325958,0.0036651916,-0.002443461,TONIC,858092540784
1776116918649,1507104000947650,9.512163,-0.1436521,-2.4899697,-6.1086525E-4,0.0067195175,-0.0012217305,TONIC,858092540784
1776116918657,1507104008967031,9.519346,-0.1412579,-2.4995465,0.0030543262,0.007941248,-0.002443461,TONIC,858092540784
1776116918665,1507104016938643,9.509769,-0.14604631,-2.504335,-6.1086525E-4,0.005497787,-0.0030543262,TONIC,858092540784
1776116918673,1507104024935871,9.502586,-0.1388637,-2.480393,0.0,0.0067195175,-6.1086525E-4,TONIC,858092540784
1776116918681,1507104032929790,9.500193,-0.12928689,-2.4947581,-6.1086525E-4,0.002443461,-0.0012217305,TONIC,858092540784
1776116918689,1507104040924864,9.512163,-0.14604631,-2.4732103,-0.0012217305,0.0012217305,-0.0012217305,TONIC,858092540784
1776116918697,1507104048949783,9.507375,-0.1316811,-2.4899697,6.1086525E-4,0.0012217305,-0.004276057,TONIC,858092540784
1776116918705,1507104056945472,9.502586,-0.11971009,-2.4899697,0.0,6.1086525E-4,-0.0018325958,TONIC,858092540784
1776116918713,1507104064997393,9.488221,-0.1388637,-2.4851813,-0.0012217305,0.0012217305,6.1086525E-4,TONIC,858092540784
1776116918721,1507104072906081,9.495404,-0.1436521,-2.4899697,0.0,0.0030543262,-6.1086525E-4,TONIC,858092540784
1776116918729,1507104080988539,9.504981,-0.14844051,-2.4899697,-0.0018325958,0.0012217305,6.1086525E-4,TONIC,858092540784
1776116918737,1507104088929151,9.502586,-0.12928689,-2.4851813,-0.0018325958,0.0036651916,0.0,TONIC,858092540784
1776116918745,1507104096979609,9.497798,-0.15083471,-2.4779987,6.1086525E-4,0.0,0.0018325958,TONIC,858092540784
1776116918753,1507104104950299,9.502586,-0.1436521,-2.480393,0.0,-0.002443461,0.0012217305,TONIC,858092540784
1776116918761,1507104112946679,9.514558,-0.14604631,-2.4851813,6.1086525E-4,6.1086525E-4,6.1086525E-4,TONIC,858092540784
1776116918769,1507104120943599,9.524135,-0.1412579,-2.4875755,6.1086525E-4,-0.0012217305,0.0012217305,TONIC,858092540784
1776116918778,1507104129053672,9.524135,-0.14844051,-2.4899697,-6.1086525E-4,6.1086525E-4,6.1086525E-4,TONIC,858092540784
1776116918785,1507104136901746,9.526528,-0.1436521,-2.5019407,0.0,0.0030543262,6.1086525E-4,TONIC,858092540784
1776116918793,1507104144958897,9.516952,-0.1412579,-2.4875755,0.0018325958,0.0030543262,0.0012217305,TONIC,858092540784
1776116918802,1507104153009970,9.526528,-0.1604115,-2.4779987,0.0030543262,0.007330383,0.0018325958,TONIC,858092540784
1776116918809,1507104160951506,9.509769,-0.16519992,-2.480393,0.0,0.004886922,0.0,TONIC,858092540784
1776116918818,1507104169062271,9.516952,-0.16519992,-2.4827871,0.0,0.002443461,-6.1086525E-4,TONIC,858092540784
1776116918825,1507104176910653,9.528923,-0.15083471,-2.4732103,-0.0012217305,0.0030543262,0.002443461,TONIC,858092540784
1776116918833,1507104184938265,9.504981,-0.14604631,-2.5019407,-0.0012217305,6.1086525E-4,0.0,TONIC,858092540784
1776116918841,1507104192932107,9.516952,-0.15322891,-2.480393,6.1086525E-4,-6.1086525E-4,-6.1086525E-4,TONIC,858092540784
1776116918849,1507104200929950,9.512163,-0.15801731,-2.4756045,6.1086525E-4,-0.0018325958,-6.1086525E-4,TONIC,858092540784
1776116918857,1507104208954640,9.531317,-0.14844051,-2.4779987,0.0,-0.004276057,6.1086525E-4,TONIC,858092540784
1776116918865,1507104216949328,9.514558,-0.16280572,-2.4827871,6.1086525E-4,-0.002443461,0.0012217305,TONIC,858092540784
1776116918873,1507104224944479,9.512163,-0.14844051,-2.4779987,-6.1086525E-4,-0.0036651916,-0.0012217305,TONIC,858092540784
1776116918881,1507104232996475,9.509769,-0.16759412,-2.4995465,6.1086525E-4,-0.0030543262,-0.0012217305,TONIC,858092540784
1776116918889,1507104240938318,9.514558,-0.16519992,-2.4779987,-0.0030543262,-0.005497787,-0.0012217305,TONIC,858092540784
1776116918898,1507104249018238,9.507375,-0.14604631,-2.4875755,-6.1086525E-4,-0.0061086523,-0.0012217305,TONIC,858092540784
1776116918905,1507104256927157,9.495404,-0.14604631,-2.504335,-6.1086525E-4,-0.0067195175,-6.1086525E-4,TONIC,858092540784
1776116918914,1507104265009385,9.488221,-0.15562311,-2.4851813,0.0012217305,-0.0036651916,-0.002443461,TONIC,858092540784
1776116918921,1507104272948689,9.49301,-0.14844051,-2.5115175,0.0,-0.004886922,-0.0018325958,TONIC,858092540784
1776116918930,1507104281000686,9.502586,-0.1316811,-2.4971523,-0.0018325958,-0.0061086523,6.1086525E-4,TONIC,858092540784
1776116918937,1507104288910529,9.509769,-0.1412579,-2.5115175,-6.1086525E-4,-0.004276057,-6.1086525E-4,TONIC,858092540784
1776116918945,1507104296935217,9.507375,-0.15322891,-2.492364,-0.0012217305,-6.1086525E-4,-0.0012217305,TONIC,858092540784
1776116918953,1507104304930907,9.504981,-0.1412579,-2.516306,-0.0012217305,-0.0012217305,-6.1086525E-4,TONIC,858092540784
1776116918961,1507104312926903,9.512163,-0.15083471,-2.5019407,0.0,6.1086525E-4,-0.0012217305,TONIC,858092540784
1776116918969,1507104320978592,9.500193,-0.15562311,-2.4899697,-6.1086525E-4,0.0018325958,-0.0030543262,TONIC,858092540784
1776116918977,1507104328949973,9.52174,-0.14844051,-2.4899697,-6.1086525E-4,0.0012217305,-0.002443461,TONIC,858092540784
1776116918985,1507104336944662,9.512163,-0.1340753,-2.504335,-0.0018325958,0.0012217305,-0.0018325958,TONIC,858092540784
1776116918993,1507104344909659,9.514558,-0.14604631,-2.492364,-6.1086525E-4,0.0018325958,-0.002443461,TONIC,858092540784
1776116919002,1507104353022193,9.514558,-0.16280572,-2.4971523,6.1086525E-4,0.0036651916,-0.0012217305,TONIC,858092540784
1776116919009,1507104360933883,9.509769,-0.1388637,-2.492364,-0.0012217305,0.0030543262,-6.1086525E-4,TONIC,858092540784
1776116919017,1507104368927495,9.497798,-0.15083471,-2.4947581,-0.0018325958,0.0018325958,-0.0018325958,TONIC,858092540784
1776116919025,1507104376952414,9.502586,-0.15322891,-2.5019407,-0.0012217305,0.004276057,-0.0012217305,TONIC,858092540784
1776116919033,1507104384947796,9.509769,-0.14604631,-2.5067291,0.0,0.0012217305,-6.1086525E-4,TONIC,858092540784
1776116919041,1507104392969639,9.526528,-0.17238252,-2.4875755,-6.1086525E-4,0.0030543262,0.0,TONIC,858092540784
1776116919049,1507104400940404,9.509769,-0.15083471,-2.4827871,-6.1086525E-4,0.0036651916,-0.0012217305,TONIC,858092540784
1776116919057,1507104408991401,9.49301,-0.14844051,-2.492364,-6.1086525E-4,0.004886922,-0.0012217305,TONIC,858092540784
1776116919065,1507104416933551,9.516952,-0.15083471,-2.4971523,0.0012217305,0.0036651916,-0.0012217305,TONIC,858092540784
1776116919073,1507104424927471,9.514558,-0.14844051,-2.492364,-6.1086525E-4,0.004276057,6.1086525E-4,TONIC,858092540784
1776116919081,1507104432923161,9.507375,-0.15322891,-2.4827871,6.1086525E-4,0.007330383,-0.0012217305,TONIC,858092540784
1776116919089,1507104440950541,9.509769,-0.14844051,-2.4827871,0.0,0.004886922,-0.0018325958,TONIC,858092540784
1776116919097,1507104448969307,9.516952,-0.15562311,-2.4612393,-6.1086525E-4,0.005497787,-6.1086525E-4,TONIC,858092540784
1776116919105,1507104456940688,9.514558,-0.1412579,-2.4851813,-0.0018325958,0.0018325958,-0.0012217305,TONIC,858092540784
1776116919113,1507104464960608,9.509769,-0.15562311,-2.4875755,-0.0012217305,-0.0012217305,-0.0012217305,TONIC,858092540784
1776116919121,1507104472930451,9.514558,-0.1412579,-2.492364,-6.1086525E-4,-6.1086525E-4,-6.1086525E-4,TONIC,858092540784
1776116919129,1507104480890755,9.507375,-0.1412579,-2.4947581,0.0,-6.1086525E-4,-0.0030543262,TONIC,858092540784
1776116919137,1507104488923675,9.519346,-0.14604631,-2.4851813,-0.0012217305,-0.002443461,-0.0036651916,TONIC,858092540784
1776116919146,1507104497034517,9.52174,-0.15083471,-2.492364,0.0,6.1086525E-4,-0.0018325958,TONIC,858092540784
1776116919153,1507104504944668,9.516952,-0.1316811,-2.4875755,0.0,0.0030543262,-0.0018325958,TONIC,858092540784
1776116919161,1507104512939127,9.504981,-0.1436521,-2.4899697,-0.0012217305,-6.1086525E-4,0.0,TONIC,858092540784
1776116919169,1507104520906507,9.512163,-0.1388637,-2.4971523,6.1086525E-4,0.0030543262,-6.1086525E-4,TONIC,858092540784
1776116919178,1507104529047427,9.512163,-0.1436521,-2.4827871,0.0012217305,0.004276057,-0.0012217305,TONIC,858092540784
1776116919185,1507104536958501,9.500193,-0.14604631,-2.4827871,-0.0012217305,0.0,6.1086525E-4,TONIC,858092540784
1776116919193,1507104544922497,9.500193,-0.15322891,-2.4827871,0.0018325958,0.004276057,6.1086525E-4,TONIC,858092540784
1776116919201,1507104552948571,9.519346,-0.1364695,-2.4971523,0.0012217305,0.0012217305,0.0,TONIC,858092540784
1776116919209,1507104560945183,9.500193,-0.15322891,-2.4851813,-6.1086525E-4,6.1086525E-4,0.0018325958,TONIC,858092540784
1776116919217,1507104568995026,9.497798,-0.1388637,-2.4732103,6.1086525E-4,-0.0012217305,0.0,TONIC,858092540784
1776116919225,1507104576936561,9.512163,-0.1388637,-2.4827871,0.0,0.0,-0.0012217305,TONIC,858092540784
1776116919233,1507104584930404,9.497798,-0.12689269,-2.4899697,0.0012217305,-0.0030543262,0.0,TONIC,858092540784
1776116919241,1507104592981785,9.512163,-0.1388637,-2.4971523,6.1086525E-4,-0.0012217305,0.0,TONIC,858092540784
1776116919249,1507104600923397,9.490616,-0.1412579,-2.5115175,-0.0012217305,-0.0036651916,6.1086525E-4,TONIC,858092540784
1776116919258,1507104609064547,9.49301,-0.1364695,-2.4995465,0.002443461,-0.002443461,0.0012217305,TONIC,858092540784
1776116919265,1507104616968544,9.509769,-0.15322891,-2.492364,-6.1086525E-4,-0.0030543262,0.0018325958,TONIC,858092540784
1776116919273,1507104624938156,9.502586,-0.1412579,-2.4971523,-6.1086525E-4,-0.002443461,0.0012217305,TONIC,858092540784
1776116919281,1507104632934384,9.509769,-0.1340753,-2.492364,-0.0012217305,0.002443461,0.002443461,TONIC,858092540784
1776116919289,1507104640930995,9.516952,-0.1364695,-2.4995465,0.0,0.0012217305,0.0018325958,TONIC,858092540784
1776116919298,1507104649042454,9.495404,-0.15083471,-2.5019407,6.1086525E-4,-6.1086525E-4,0.0030543262,TONIC,858092540784
1776116919305,1507104656922451,9.52174,-0.1436521,-2.4899697,0.0,0.0012217305,0.0018325958,TONIC,858092540784
1776116919313,1507104664947370,9.516952,-0.1436521,-2.4779987,-0.0012217305,0.0018325958,0.002443461,TONIC,858092540784
1776116919321,1507104672913751,9.507375,-0.1604115,-2.4756045,-0.002443461,6.1086525E-4,0.002443461,TONIC,858092540784
1776116919329,1507104680941518,9.516952,-0.17717093,-2.4827871,0.0,0.002443461,0.0012217305,TONIC,858092540784
1776116919338,1507104689086360,9.502586,-0.17477672,-2.4875755,-0.0012217305,0.0018325958,0.0018325958,TONIC,858092540784
1776116919345,1507104696985511,9.512163,-0.1604115,-2.504335,-6.1086525E-4,0.0030543262,0.0,TONIC,858092540784
1776116919353,1507104704958661,9.512163,-0.16519992,-2.4827871,-6.1086525E-4,0.002443461,-6.1086525E-4,TONIC,858092540784
1776116919362,1507104713068273,9.514558,-0.16759412,-2.4971523,0.0030543262,0.004886922,6.1086525E-4,TONIC,858092540784
1776116919369,1507104720949808,9.519346,-0.17956513,-2.504335,-0.0012217305,0.0012217305,-0.0012217305,TONIC,858092540784
1776116919378,1507104729029112,9.509769,-0.16280572,-2.4899697,0.0018325958,0.002443461,-0.0012217305,TONIC,858092540784
1776116919385,1507104736907878,9.514558,-0.15322891,-2.4899697,-0.0012217305,0.0,-0.0012217305,TONIC,858092540784
1776116919393,1507104744903567,9.512163,-0.17238252,-2.480393,6.1086525E-4,-0.0012217305,-0.0018325958,TONIC,858092540784
1776116919401,1507104752954718,9.528923,-0.15801731,-2.492364,-6.1086525E-4,6.1086525E-4,-0.002443461,TONIC,858092540784
1776116919409,1507104760927330,9.514558,-0.15801731,-2.5019407,-0.0012217305,6.1086525E-4,-0.0018325958,TONIC,858092540784
1776116919418,1507104769037480,9.509769,-0.15801731,-2.4899697,0.0,6.1086525E-4,-0.002443461,TONIC,858092540784
1776116919425,1507104776917169,9.509769,-0.14604631,-2.4851813,-6.1086525E-4,0.0012217305,-0.004886922,TONIC,858092540784
1776116919433,1507104784998319,9.497798,-0.1364695,-2.4732103,-0.0030543262,-6.1086525E-4,-0.0012217305,TONIC,858092540784
1776116919441,1507104792908547,9.531317,-0.1412579,-2.480393,0.0,0.0036651916,-0.002443461,TONIC,858092540784
1776116919449,1507104800903621,9.519346,-0.1364695,-2.480393,6.1086525E-4,0.004276057,-0.0018325958,TONIC,858092540784
1776116919458,1507104809046078,9.516952,-0.1364695,-2.4875755,-6.1086525E-4,0.0018325958,-0.0018325958,TONIC,858092540784
1776116919465,1507104816924460,9.516952,-0.15801731,-2.4732103,0.0012217305,6.1086525E-4,-0.0030543262,TONIC,858092540784
1776116919474,1507104825037379,9.507375,-0.12928689,-2.468422,0.0,-0.0030543262,-0.0012217305,TONIC,858092540784
1776116919481,1507104832947299,9.52174,-0.12689269,-2.480393,-6.1086525E-4,-0.0036651916,-0.002443461,TONIC,858092540784
1776116919489,1507104840913142,9.502586,-0.1340753,-2.4875755,0.0012217305,-0.005497787,-0.002443461,TONIC,858092540784
1776116919498,1507104849024138,9.495404,-0.1364695,-2.4971523,0.0,-0.005497787,-0.0012217305,TONIC,858092540784
1776116919505,1507104856902905,9.49301,-0.12928689,-2.492364,-0.0012217305,-0.005497787,-6.1086525E-4,TONIC,858092540784
1776116919513,1507104864929363,9.497798,-0.1412579,-2.4947581,0.0,-0.002443461,0.0,TONIC,858092540784
1776116919521,1507104872925667,9.504981,-0.1412579,-2.492364,0.0,-0.0012217305,-6.1086525E-4,TONIC,858092540784
1776116919529,1507104880921048,9.502586,-0.14604631,-2.4995465,6.1086525E-4,0.0012217305,6.1086525E-4,TONIC,858092540784
1776116919538,1507104889063198,9.507375,-0.16280572,-2.492364,0.0,-0.0012217305,6.1086525E-4,TONIC,858092540784
1776116919545,1507104896910888,9.497798,-0.14604631,-2.5019407,-0.002443461,-0.002443461,0.0,TONIC,858092540784
1776116919553,1507104904938346,9.502586,-0.1316811,-2.4899697,0.0012217305,0.0,-6.1086525E-4,TONIC,858092540784
1776116919561,1507104912934265,9.519346,-0.1364695,-2.5019407,6.1086525E-4,6.1086525E-4,-6.1086525E-4,TONIC,858092540784
1776116919569,1507104920930032,9.526528,-0.1388637,-2.4875755,-0.0012217305,0.0,0.002443461,TONIC,858092540784
1776116919578,1507104929010643,9.502586,-0.15562311,-2.4899697,0.0030543262,0.004276057,0.0012217305,TONIC,858092540784
1776116919585,1507104936921025,9.52174,-0.1388637,-2.504335,6.1086525E-4,0.0,0.0012217305,TONIC,858092540784
1776116919593,1507104944916791,9.509769,-0.14604631,-2.4875755,-0.002443461,6.1086525E-4,0.0018325958,TONIC,858092540784
1776116919601,1507104952942941,9.495404,-0.1604115,-2.4899697,-6.1086525E-4,0.0012217305,0.004276057,TONIC,858092540784
1776116919609,1507104960993015,9.516952,-0.1364695,-2.4995465,0.0,0.0012217305,0.002443461,TONIC,858092540784
1776116919617,1507104968933011,9.514558,-0.15801731,-2.4875755,-6.1086525E-4,6.1086525E-4,0.0018325958,TONIC,858092540784
1776116919625,1507104976984162,9.519346,-0.17238252,-2.4851813,-6.1086525E-4,-6.1086525E-4,0.0018325958,TONIC,858092540784
1776116919633,1507104984954236,9.52174,-0.16998832,-2.4995465,6.1086525E-4,0.0012217305,0.0018325958,TONIC,858092540784
1776116919642,1507104993006001,9.49301,-0.16519992,-2.4971523,0.0,0.0,0.0018325958,TONIC,858092540784
1776116919649,1507105000915767,9.504981,-0.16998832,-2.480393,-0.0012217305,0.0012217305,0.0012217305,TONIC,858092540784
1776116919658,1507105009027763,9.516952,-0.16759412,-2.4875755,-0.0018325958,0.0018325958,-0.0012217305,TONIC,858092540784
1776116919665,1507105016938299,9.512163,-0.15562311,-2.4779987,-6.1086525E-4,-6.1086525E-4,-0.0018325958,TONIC,858092540784
1776116919674,1507105025024372,9.512163,-0.16759412,-2.4851813,-6.1086525E-4,-6.1086525E-4,-0.0012217305,TONIC,858092540784
1776116919681,1507105032984061,9.52174,-0.15801731,-2.4947581,0.0,-6.1086525E-4,0.0,TONIC,858092540784
1776116919689,1507105040955827,9.52174,-0.14844051,-2.4971523,-6.1086525E-4,-0.002443461,-0.0018325958,TONIC,858092540784
1776116919697,1507105048950593,9.502586,-0.14844051,-2.4899697,-6.1086525E-4,-0.0030543262,-6.1086525E-4,TONIC,858092540784
1776116919705,1507105056970820,9.502586,-0.15083471,-2.4827871,-0.0012217305,-0.0030543262,-6.1086525E-4,TONIC,858092540784
1776116919713,1507105064941279,9.502586,-0.1340753,-2.492364,0.0,-0.0030543262,6.1086525E-4,TONIC,858092540784
1776116919721,1507105072907198,9.500193,-0.1340753,-2.4947581,-6.1086525E-4,-0.004276057,0.0,TONIC,858092540784
1776116919729,1507105080988118,9.514558,-0.15083471,-2.4779987,6.1086525E-4,0.0,-0.0018325958,TONIC,858092540784
1776116919737,1507105088959192,9.500193,-0.1340753,-2.4899697,-0.0018325958,-0.0012217305,-0.0030543262,TONIC,858092540784
1776116919745,1507105096924034,9.483433,-0.1340753,-2.4971523,6.1086525E-4,6.1086525E-4,0.0,TONIC,858092540784
1776116919753,1507105104921262,9.504981,-0.14604631,-2.4971523,-0.0012217305,-6.1086525E-4,-0.0012217305,TONIC,858092540784
1776116919761,1507105112913950,9.524135,-0.1412579,-2.4875755,0.0030543262,0.0,0.0,TONIC,858092540784
1776116919769,1507105120943409,9.504981,-0.1388637,-2.5019407,-6.1086525E-4,0.0012217305,-0.002443461,TONIC,858092540784
1776116919777,1507105128936713,9.507375,-0.1436521,-2.4899697,-6.1086525E-4,0.0018325958,-0.0012217305,TONIC,858092540784
1776116919786,1507105137018248,9.512163,-0.15322891,-2.5019407,0.0012217305,0.0018325958,0.0012217305,TONIC,858092540784
1776116919793,1507105144958476,9.481039,-0.14844051,-2.4875755,0.0030543262,0.004276057,-6.1086525E-4,TONIC,858092540784
1776116919801,1507105152979087,9.504981,-0.15322891,-2.4995465,-0.0030543262,6.1086525E-4,-6.1086525E-4,TONIC,858092540784
1776116919809,1507105160949853,9.519346,-0.14604631,-2.480393,0.0,0.0036651916,-6.1086525E-4,TONIC,858092540784
1776116919817,1507105168970235,9.519346,-0.14844051,-2.4875755,0.0,0.0030543262,0.0,TONIC,858092540784
1776116919825,1507105176940616,9.495404,-0.15083471,-2.4875755,-6.1086525E-4,0.0036651916,0.0012217305,TONIC,858092540784
1776116919833,1507105184937536,9.519346,-0.15322891,-2.4947581,-0.0012217305,0.0030543262,6.1086525E-4,TONIC,858092540784
1776116919841,1507105192931994,9.504981,-0.15322891,-2.4779987,-6.1086525E-4,0.0018325958,6.1086525E-4,TONIC,858092540784
1776116919849,1507105200928375,9.500193,-0.15083471,-2.4827871,0.0012217305,0.002443461,6.1086525E-4,TONIC,858092540784
1776116919858,1507105209039756,9.504981,-0.1412579,-2.4732103,-6.1086525E-4,6.1086525E-4,0.0018325958,TONIC,858092540784
1776116919865,1507105216918137,9.512163,-0.14844051,-2.4827871,0.0,-0.0018325958,-6.1086525E-4,TONIC,858092540784
1776116919873,1507105224915749,9.516952,-0.1412579,-2.4875755,6.1086525E-4,0.0030543262,0.0,TONIC,858092540784
1776116919882,1507105233026516,9.528923,-0.15322891,-2.4851813,-6.1086525E-4,-0.0012217305,6.1086525E-4,TONIC,858092540784
1776116919889,1507105240937204,9.519346,-0.1388637,-2.4971523,6.1086525E-4,0.0,6.1086525E-4,TONIC,858092540784
1776116919898,1507105249083432,9.526528,-0.1436521,-2.4899697,0.0,-0.0012217305,6.1086525E-4,TONIC,858092540784
1776116919905,1507105256952351,9.504981,-0.1412579,-2.4851813,0.002443461,0.002443461,-0.0012217305,TONIC,858092540784
1776116919913,1507105264954194,9.512163,-0.1436521,-2.480393,0.0,6.1086525E-4,0.0012217305,TONIC,858092540784
1776116919922,1507105273065576,9.514558,-0.15562311,-2.4732103,-6.1086525E-4,-0.0012217305,6.1086525E-4,TONIC,858092540784
1776116919929,1507105280916264,9.507375,-0.15083471,-2.4779987,-6.1086525E-4,0.0,-6.1086525E-4,TONIC,858092540784
1776116919937,1507105288965261,9.502586,-0.1436521,-2.4875755,-6.1086525E-4,-0.0018325958,-0.0018325958,TONIC,858092540784
1776116919945,1507105296936257,9.497798,-0.14844051,-2.4947581,-0.0018325958,-0.0036651916,-0.0018325958,TONIC,858092540784
1776116919953,1507105304931331,9.502586,-0.15083471,-2.5091233,0.0,-0.004276057,6.1086525E-4,TONIC,858092540784
1776116919961,1507105312926790,9.512163,-0.1436521,-2.5019407,6.1086525E-4,-6.1086525E-4,-0.0018325958,TONIC,858092540784
1776116919970,1507105321008863,9.514558,-0.12928689,-2.4971523,-0.002443461,-0.0030543262,-0.0012217305,TONIC,858092540784
1776116919977,1507105328919398,9.524135,-0.14604631,-2.4851813,-0.0012217305,-0.0012217305,0.0012217305,TONIC,858092540784
1776116919985,1507105336913779,9.49301,-0.1388637,-2.4851813,-0.0030543262,-6.1086525E-4,-0.0012217305,TONIC,858092540784
1776116919993,1507105344910468,9.516952,-0.14844051,-2.504335,-6.1086525E-4,0.0012217305,0.0,TONIC,858092540784
1776116920001,1507105352936003,9.500193,-0.1412579,-2.492364,6.1086525E-4,0.0018325958,6.1086525E-4,TONIC,858092540784
1776116920009,1507105360932538,9.516952,-0.12928689,-2.5019407,-0.0018325958,0.0030543262,-6.1086525E-4,TONIC,858092540784
1776116920018,1507105369043381,9.497798,-0.1340753,-2.4875755,0.002443461,0.004886922,-6.1086525E-4,TONIC,858092540784
1776116920025,1507105376921224,9.507375,-0.1316811,-2.4947581,0.0,0.004886922,-0.0012217305,TONIC,858092540784
1776116920033,1507105384918759,9.504981,-0.1316811,-2.492364,6.1086525E-4,0.0018325958,6.1086525E-4,TONIC,858092540784
1776116920041,1507105392943910,9.507375,-0.15801731,-2.4875755,0.0,0.0012217305,6.1086525E-4,TONIC,858092540784
1776116920049,1507105400938983,9.495404,-0.12449849,-2.4995465,6.1086525E-4,0.0012217305,0.0012217305,TONIC,858092540784
1776116920057,1507105408934980,9.500193,-0.11971009,-2.4756045,0.0,0.0,0.0012217305,TONIC,858092540784
1776116920065,1507105416930669,9.497798,-0.12689269,-2.4947581,0.0,-6.1086525E-4,-6.1086525E-4,TONIC,858092540784
1776116920073,1507105424982126,9.507375,-0.12689269,-2.4875755,6.1086525E-4,0.0,0.0012217305,TONIC,858092540784
1776116920081,1507105432922047,9.485827,-0.1604115,-2.480393,0.0012217305,0.0,0.0012217305,TONIC,858092540784
1776116920089,1507105440919350,9.504981,-0.1436521,-2.5019407,-0.0012217305,-6.1086525E-4,0.0018325958,TONIC,858092540784
1776116920097,1507105448999347,9.509769,-0.1340753,-2.4947581,6.1086525E-4,0.004276057,0.0012217305,TONIC,858092540784
1776116920105,1507105456909729,9.509769,-0.15083471,-2.5019407,0.0,0.0030543262,0.0018325958,TONIC,858092540784
1776116920113,1507105464937417,9.500193,-0.1364695,-2.4995465,0.0,0.005497787,0.0036651916,TONIC,858092540784
1776116920121,1507105472930107,9.500193,-0.12449849,-2.4827871,-0.0018325958,6.1086525E-4,0.0036651916,TONIC,858092540784
1776116920130,1507105481012256,9.514558,-0.1364695,-2.4779987,-0.002443461,-0.0018325958,0.0036651916,TONIC,858092540784
1776116920137,1507105488951638,9.509769,-0.1364695,-2.4875755,-0.0012217305,0.0012217305,0.002443461,TONIC,858092540784
1776116920145,1507105496973097,9.509769,-0.15562311,-2.4756045,-0.0012217305,0.0,0.0030543262,TONIC,858092540784
1776116920153,1507105504913093,9.497798,-0.16519992,-2.4995465,6.1086525E-4,-0.0012217305,0.0036651916,TONIC,858092540784
1776116920161,1507105512908167,9.502586,-0.16998832,-2.5019407,-0.0030543262,-0.002443461,0.004886922,TONIC,858092540784
1776116920169,1507105520937086,9.52174,-0.15801731,-2.4851813,0.0018325958,0.0018325958,0.0036651916,TONIC,858092540784
1776116920178,1507105529047006,9.531317,-0.17956513,-2.4971523,0.0,0.0018325958,0.0012217305,TONIC,858092540784
1776116920185,1507105536926926,9.524135,-0.17477672,-2.4899697,-0.0018325958,6.1086525E-4,0.002443461,TONIC,858092540784
1776116920193,1507105544952768,9.512163,-0.18195933,-2.4875755,0.0,-6.1086525E-4,0.0012217305,TONIC,858092540784
1776116920201,1507105552947227,9.507375,-0.16759412,-2.492364,-0.0012217305,-0.0012217305,0.0,TONIC,858092540784
1776116920209,1507105560944531,9.495404,-0.15562311,-2.492364,0.0,-0.0012217305,-6.1086525E-4,TONIC,858092540784
1776116920217,1507105568963912,9.519346,-0.16998832,-2.4899697,-6.1086525E-4,-0.0012217305,-0.0018325958,TONIC,858092540784
1776116920225,1507105576934601,9.507375,-0.1604115,-2.5019407,-6.1086525E-4,-6.1086525E-4,-6.1086525E-4,TONIC,858092540784
1776116920233,1507105584929367,9.514558,-0.16280572,-2.4947581,-6.1086525E-4,0.0,-0.002443461,TONIC,858092540784
1776116920241,1507105592955517,9.507375,-0.16280572,-2.4947581,-6.1086525E-4,0.0,-0.0018325958,TONIC,858092540784
1776116920249,1507105600953361,9.52174,-0.15801731,-2.4827871,0.0012217305,0.0,-0.0018325958,TONIC,858092540784
1776116920257,1507105608947510,9.524135,-0.16519992,-2.4851813,-0.0012217305,6.1086525E-4,-0.002443461,TONIC,858092540784
1776116920265,1507105616942354,9.500193,-0.15801731,-2.492364,-0.0018325958,0.0,-6.1086525E-4,TONIC,858092540784
1776116920273,1507105624937042,9.507375,-0.15083471,-2.4827871,0.0,6.1086525E-4,-0.0018325958,TONIC,858092540784
1776116920281,1507105632934577,9.512163,-0.14844051,-2.4732103,0.0,6.1086525E-4,-0.0030543262,TONIC,858092540784
1776116920289,1507105640932421,9.507375,-0.1388637,-2.504335,-6.1086525E-4,6.1086525E-4,-0.0030543262,TONIC,858092540784
1776116920297,1507105648924494,9.509769,-0.1316811,-2.4899697,0.0,-0.0018325958,-0.0012217305,TONIC,858092540784
1776116920305,1507105656951183,9.49301,-0.15322891,-2.5091233,0.0,-0.0018325958,-0.002443461,TONIC,858092540784
1776116920313,1507105664945640,9.509769,-0.1340753,-2.492364,-6.1086525E-4,-0.0030543262,-0.002443461,TONIC,858092540784
1776116920321,1507105672941714,9.497798,-0.12210429,-2.5091233,-0.0012217305,-0.0012217305,-0.0012217305,TONIC,858092540784
1776116920329,1507105680940711,9.49301,-0.11971009,-2.4947581,-6.1086525E-4,0.0018325958,-0.0030543262,TONIC,858092540784
1776116920337,1507105688933630,9.497798,-0.12689269,-2.4995465,-0.0018325958,0.0018325958,-6.1086525E-4,TONIC,858092540784
1776116920345,1507105696929089,9.500193,-0.11971009,-2.4947581,6.1086525E-4,0.002443461,0.0012217305,TONIC,858092540784
1776116920353,1507105704955777,9.509769,-0.1340753,-2.4779987,0.0,0.004886922,0.0018325958,TONIC,858092540784
1776116920361,1507105712952159,9.509769,-0.1436521,-2.4827871,-6.1086525E-4,0.0036651916,0.0018325958,TONIC,858092540784
1776116920369,1507105720946541,9.502586,-0.14844051,-2.4851813,0.0,0.0030543262,0.0030543262,TONIC,858092540784
1776116920377,1507105728941614,9.509769,-0.1388637,-2.4875755,-6.1086525E-4,0.0012217305,0.0030543262,TONIC,858092540784
1776116920385,1507105736938611,9.490616,-0.1436521,-2.492364,-6.1086525E-4,6.1086525E-4,0.0036651916,TONIC,858092540784
1776116920393,1507105744933685,9.516952,-0.1316811,-2.4971523,-0.0012217305,0.0012217305,0.0036651916,TONIC,858092540784
1776116920401,1507105752984988,9.514558,-0.12928689,-2.4708161,-6.1086525E-4,6.1086525E-4,0.0030543262,TONIC,858092540784
1776116920409,1507105760925293,9.526528,-0.1436521,-2.4851813,-6.1086525E-4,0.0012217305,0.002443461,TONIC,858092540784
1776116920418,1507105769037058,9.514558,-0.1412579,-2.4779987,-0.002443461,6.1086525E-4,0.0030543262,TONIC,858092540784
1776116920425,1507105776916978,9.500193,-0.1412579,-2.4875755,-6.1086525E-4,0.002443461,0.0030543262,TONIC,858092540784
1776116920433,1507105784913052,9.519346,-0.1388637,-2.4899697,0.0,0.0018325958,0.004886922,TONIC,858092540784
1776116920441,1507105792899510,9.495404,-0.1436521,-2.4875755,-6.1086525E-4,0.0012217305,0.0036651916,TONIC,858092540784
1776116920449,1507105800934199,9.516952,-0.15322891,-2.4756045,0.0,-6.1086525E-4,0.0030543262,TONIC,858092540784
1776116920458,1507105809045657,9.495404,-0.15083471,-2.4732103,-0.002443461,-0.0030543262,0.0036651916,TONIC,858092540784
1776116920465,1507105816954269,9.531317,-0.1412579,-2.504335,-0.0012217305,-0.0018325958,0.0036651916,TONIC,858092540784
1776116920473,1507105824950574,9.519346,-0.16998832,-2.4971523,6.1086525E-4,-6.1086525E-4,0.0030543262,TONIC,858092540784
1776116920481,1507105832916724,9.519346,-0.1604115,-2.480393,-0.0018325958,-0.0030543262,6.1086525E-4,TONIC,858092540784
1776116920489,1507105840912721,9.507375,-0.16280572,-2.5091233,-0.002443461,-0.0012217305,0.0030543262,TONIC,858092540784
1776116920497,1507105848962563,9.504981,-0.1604115,-2.4971523,0.0,0.0012217305,0.0018325958,TONIC,858092540784
1776116920505,1507105856933868,9.536105,-0.1436521,-2.4851813,6.1086525E-4,0.0012217305,0.0018325958,TONIC,858092540784
1776116920513,1507105864930480,9.514558,-0.1604115,-2.4899697,-6.1086525E-4,6.1086525E-4,0.0018325958,TONIC,858092540784
1776116920521,1507105872925014,9.519346,-0.1604115,-2.4732103,-0.002443461,-0.0012217305,0.0,TONIC,858092540784
1776116920529,1507105880952935,9.531317,-0.16280572,-2.4756045,0.0030543262,0.0012217305,6.1086525E-4,TONIC,858092540784
1776116920538,1507105889001623,9.502586,-0.15801731,-2.4947581,-6.1086525E-4,-0.0030543262,0.0012217305,TONIC,858092540784
1776116920545,1507105896941620,9.504981,-0.15322891,-2.5115175,0.0012217305,-0.0030543262,0.0012217305,TONIC,858092540784
1776116920553,1507105904906540,9.528923,-0.14604631,-2.4995465,6.1086525E-4,-0.004276057,-0.0012217305,TONIC,858092540784
1776116920561,1507105912988613,9.512163,-0.1340753,-2.5091233,-0.0018325958,-0.0030543262,0.0,TONIC,858092540784
1776116920569,1507105920960995,9.507375,-0.1316811,-2.4947581,0.0012217305,-0.0018325958,6.1086525E-4,TONIC,858092540784
