epoch_ms,event_ts_ns,AX,AY,AZ,GX,GY,GZ,label,sessionID
1776131989340,18526896904862,-1.4700398,1.1300632,8.844181,0.14782938,-0.17837265,-0.3494149,TREMOR,635380530830
1776131989353,18526916924393,-1.5394717,0.6871359,8.918402,0.1001819,0.07574729,-0.05131268,TREMOR,635380530830
1776131989384,18526936943924,-1.5370775,0.533907,9.246407,0.9407325,0.23457226,0.056199603,TREMOR,635380530830
1776131989403,18526956932938,-1.4652514,1.4077905,9.433155,1.0934488,0.1160644,0.036651913,TREMOR,635380530830
1776131989415,18526977013504,-1.5729905,2.930503,8.9519205,1.028697,0.064751714,0.05497787,TREMOR,635380530830
1776131989442,18526997033036,-1.5753847,2.9975405,8.535329,0.61819565,0.064751714,0.047647487,TREMOR,635380530830
1776131989467,18527017052567,-1.553837,2.3175871,8.645462,-0.037873644,0.05131268,0.07574729,TREMOR,635380530830
1776131989472,18527037072098,-1.5969325,2.27928,9.67018,-0.74281216,0.008552114,0.009773844,TREMOR,635380530830
1776131989519,18527057122147,-1.6256629,1.2042835,9.607931,-0.6817256,0.018325957,-0.04886922,TREMOR,635380530830
1776131989537,18527077141678,-1.7836803,2.3678656,9.370906,-0.19425514,-0.008552114,-0.030543262,TREMOR,635380530830
1776131989543,18527097191727,-1.5442601,2.1428106,9.315839,-0.1600467,0.0061086523,-0.06352998,TREMOR,635380530830
1776131989552,18527117241776,-1.6807296,1.484405,9.174581,-0.26633725,0.0,-0.02443461,TREMOR,635380530830
1776131989586,18527137261307,-1.6567876,1.7741034,8.9519205,-0.36896262,-0.021991149,-0.030543262,TREMOR,635380530830
1776131989595,18527157311356,-1.5825673,2.0566192,8.532935,-0.8026769,-0.029321533,-0.030543262,TREMOR,635380530830
1776131989621,18527177361405,-1.6184803,2.1667526,9.076419,-1.6945401,-0.07452556,-0.039095376,TREMOR,635380530830
1776131989635,18527197411454,-1.520318,0.6703765,9.229648,-2.5277603,-0.13561209,-0.112399206,TREMOR,635380530830
1776131989653,18527217461502,-1.5586253,0.90740246,8.963891,-3.1300735,-0.15515977,-0.172264,TREMOR,635380530830
1776131989675,18527237511551,-1.4317327,0.92655605,8.820239,-4.229631,-0.15271631,-0.118507855,TREMOR,635380530830
1776131989703,18527257561600,-1.5394717,-0.89303726,9.045294,-5.353623,-0.10751228,-0.18448131,TREMOR,635380530830
1776131989714,18527277642166,-1.4867992,-2.4732103,10.479421,-5.6602774,-0.10262536,-0.19181168,TREMOR,635380530830
1776131989736,18527297661698,-1.5298948,-9.167398,10.146626,-4.321261,-0.20769419,-0.267559,TREMOR,635380530830
1776131989752,18527317681229,-0.9696517,-9.878476,7.4603324,0.26633725,0.07819075,-0.20891592,TREMOR,635380530830
1776131989774,18527337700760,-1.1013328,-1.6663644,9.083601,4.8820353,-0.013439035,-0.28344148,TREMOR,635380530830
1776131989803,18527357720291,-1.7429788,1.1348516,9.65821,5.127603,0.04886922,0.04642576,TREMOR,635380530830
1776131989834,18527377770340,-1.6256629,-0.46926352,9.083601,2.806315,-0.015882496,0.1685988,TREMOR,635380530830
1776131989836,18527397789872,-1.3910311,-0.78529817,7.855376,0.93828905,-0.057421334,0.112399206,TREMOR,635380530830
1776131989862,18527417839920,-1.9273324,1.1348516,8.049306,-0.84665924,-0.08307768,0.043982297,TREMOR,635380530830
1776131989872,18527437859452,-1.6807296,0.19632454,8.844181,-3.1080823,-0.16371189,0.007330383,TREMOR,635380530830
1776131989906,18527457878983,-1.3790601,-3.3566709,10.359711,-4.5399504,-0.23823744,-0.047647487,TREMOR,635380530830
1776131989921,18527477898514,-1.2808979,-6.244078,9.85214,-3.6688566,-0.12950343,-0.06963864,TREMOR,635380530830
1776131989937,18527497918045,-0.8810662,-5.0900726,9.251195,-1.0250319,-0.019547688,-0.012217305,TREMOR,635380530830
1776131989959,18527517937577,-0.8762778,-2.80361,9.452309,1.1826351,0.06841691,0.07574729,TREMOR,635380530830
1776131989974,18527537957108,-1.1803415,-2.1978772,8.841787,1.5198327,0.06841691,0.009773844,TREMOR,635380530830
1776131990001,18527557976639,-0.7517793,-2.7844565,9.279925,0.98349303,-0.014660766,0.021991149,TREMOR,635380530830
1776131990019,18527577996170,-1.13964,-2.1571758,9.349358,0.453262,-0.034208454,0.010995574,TREMOR,635380530830
1776131990032,18527598076737,-1.3599066,-1.553837,8.623915,-0.3213151,-0.0842994,-0.009773844,TREMOR,635380530830
1776131990057,18527618126786,-1.3838485,-2.1643584,8.784326,-1.3109168,-0.11728613,-0.004886922,TREMOR,635380530830
1776131990072,18527638146317,-1.1947067,-4.8745947,9.931149,-1.5088371,-0.08307768,0.004886922,TREMOR,635380530830
1776131990101,18527658165848,-1.0462662,-4.453215,9.840169,-0.5766568,0.05375614,0.019547688,TREMOR,635380530830
1776131990124,18527678215897,-1.1563994,-2.7629087,9.306262,0.37751472,0.13561209,0.059864793,TREMOR,635380530830
1776131990133,18527698235428,-1.1803415,-2.4947581,9.246407,0.41538838,0.23457226,0.029321533,TREMOR,635380530830
1776131990153,18527718285477,-1.0319009,-2.8634653,9.519346,0.1001819,0.2919936,0.02321288,TREMOR,635380530830
1776131990172,18527738305008,-1.2737153,-2.906561,8.839393,-0.058643065,0.32742378,0.013439035,TREMOR,635380530830
1776131990202,18527758385575,-1.6136919,-3.2944214,8.767567,-0.23701571,0.32742378,0.010995574,TREMOR,635380530830
1776131990212,18527778374588,-2.1332338,-3.083732,7.2831616,-0.4092797,0.111177474,0.002443461,TREMOR,635380530830
1776131990234,18527798455155,-1.6998832,-2.195483,7.0245876,-0.8393288,-0.17470746,-0.081855945,TREMOR,635380530830
1776131990257,18527818474686,-1.733402,-3.3925838,9.313444,-1.5137241,-0.23335053,-0.12339478,TREMOR,635380530830
1776131990272,18527838494217,-1.6903064,-4.8267107,10.086772,-1.568702,-0.27366763,-0.081855945,TREMOR,635380530830
1776131990301,18527858513748,-1.2186487,-6.1076083,9.560047,-0.56077427,-0.28221974,-0.14538592,TREMOR,635380530830
1776131990318,18527878533280,-0.8762778,-4.8506527,9.354146,0.7806858,-0.12339478,-0.12950343,TREMOR,635380530830
1776131990334,18527898583329,-1.2138603,-3.6272156,9.085996,1.4330899,0.03176499,-0.057421334,TREMOR,635380530830
1776131990357,18527918602860,-1.0462662,-1.163582,8.63828,0.9053023,0.028099801,-0.021991149,TREMOR,635380530830
1776131990372,18527938622391,-1.2952632,-0.7230489,7.97748,-1.5357152,0.119729586,0.09040806,TREMOR,635380530830
1776131990401,18527958641922,-1.6448165,-3.8067808,8.123527,-3.9681807,0.09896017,0.13316862,TREMOR,635380530830
1776131990418,18527978691971,-1.5825673,-6.136339,7.747637,-4.796514,-0.062308256,0.10751228,TREMOR,635380530830
1776131990440,18527998711502,-1.1085154,-9.737218,7.9822683,-3.2693508,-0.1966986,-0.056199603,TREMOR,635380530830
1776131990453,18528018792069,-0.46447513,-9.3733,7.8865004,0.13561209,-0.05131268,-0.14172074,TREMOR,635380530830
1776131990473,18528038811600,-0.5674258,-5.4899044,8.324639,3.1618385,0.04520403,-0.1563815,TREMOR,635380530830
1776131990510,18528058831131,-1.3120226,-3.6655228,8.329428,4.111123,0.105068825,-0.058643065,TREMOR,635380530830
1776131990518,18528078881180,-1.3239936,-2.9903579,8.995016,3.5100317,0.0720821,-0.057421334,TREMOR,635380530830
1776131990536,18528098900711,-1.1659763,-0.9744401,7.9607205,1.1191051,0.036651913,0.095294975,TREMOR,635380530830
1776131990553,18528118920243,-2.183512,-2.6982653,6.754043,-1.9413297,0.080634214,0.12583824,TREMOR,635380530830
1776131990574,18528139000809,-1.7286136,-5.209783,7.630321,-3.5906658,-0.095294975,0.080634214,TREMOR,635380530830
1776131990608,18528159020340,-1.412579,-7.4148426,9.425972,-3.4684927,-0.10995574,-0.018325957,TREMOR,635380530830
1776131990615,18528179039872,-0.842759,-9.088389,9.062054,-1.2302825,-0.064751714,-0.08674286,TREMOR,635380530830
1776131990635,18528199120438,-0.62249243,-5.133168,8.350976,1.8240436,0.112399206,-0.14538592,TREMOR,635380530830
1776131990657,18528219139969,-1.0319009,-3.8402996,8.346188,3.1948252,0.16737708,0.03176499,TREMOR,635380530830
1776131990675,18528239220536,-1.1827357,-3.2752678,8.987833,2.8393016,0.16982053,-0.058643065,TREMOR,635380530830
1776131990702,18528259301102,-0.9983821,-1.1659763,7.785944,0.6914995,0.12217305,0.10262536,TREMOR,635380530830
1776131990715,18528279351151,-1.8674773,-3.169923,6.8162923,-2.2382102,0.14782938,0.16982053,TREMOR,635380530830
1776131990735,18528299401200,-1.7788919,-5.793968,7.383718,-4.0402627,-0.019547688,0.16126843,TREMOR,635380530830
1776131990756,18528319512284,-1.541866,-8.104373,8.568848,-3.8716638,-0.05009095,0.013439035,TREMOR,635380530830
1776131990784,18528339562332,-0.89303726,-8.683769,8.240842,-1.5858061,-0.02565634,-0.032986723,TREMOR,635380530830
1776131990801,18528359642899,-1.055843,-5.511452,7.69257,1.0812315,0.14049901,-0.105068825,TREMOR,635380530830
1776131990823,18528379692948,-1.376666,-5.118803,7.85777,2.2956316,0.119729586,0.057421334,TREMOR,635380530830
1776131990834,18528399712479,-1.448492,-3.7828386,7.714118,1.6285667,0.05131268,0.042760566,TREMOR,635380530830
1776131990853,18528419732010,-1.9057846,-4.5896845,6.873753,-0.19303341,0.008552114,0.06963864,TREMOR,635380530830
1776131990874,18528439721024,-1.7070658,-5.9926867,7.3047094,-1.7201965,-0.10140363,0.12705997,TREMOR,635380530830
1776131990909,18528459740555,-1.5610195,-7.513005,7.8386164,-1.8203784,-0.15027285,-0.0036651916,TREMOR,635380530830
1776131990915,18528479790604,-1.1444284,-7.4842744,8.118738,-0.4654793,-0.09285152,-0.05131268,TREMOR,635380530830
1776131990935,18528499810135,-1.1587936,-5.7604494,7.7548194,1.1594223,0.009773844,-0.04520403,TREMOR,635380530830
1776131990958,18528519829666,-1.3862427,-4.9344497,8.1642275,1.8350391,0.02565634,0.05375614,TREMOR,635380530830
1776131990976,18528539849198,-1.3144168,-3.4955344,7.7548194,0.8723156,0.02076942,0.06352998,TREMOR,635380530830
1776131991001,18528559868729,-1.7501614,-4.4939165,7.3071036,-1.128879,0.014660766,0.12950343,TREMOR,635380530830
1776131991019,18528579888260,-1.6711528,-5.849035,6.8067155,-2.4556782,-0.07574729,0.13927728,TREMOR,635380530830
1776131991034,18528599907791,-1.4053963,-6.4044895,7.759608,-2.5595255,-0.09407325,0.010995574,TREMOR,635380530830
1776131991058,18528619927323,-1.1420342,-9.837775,7.819463,-1.2449434,-0.19914207,-0.059864793,TREMOR,635380530830
1776131991074,18528639946854,-0.7230489,-8.374918,7.7667904,1.4709635,-0.056199603,-0.11728613,TREMOR,635380530830
1776131991101,18528659966385,-0.93852705,-5.379771,7.714118,3.4868188,0.04153884,-0.08552113,TREMOR,635380530830
1776131991124,18528679985916,-1.4221559,-4.3957543,8.23366,3.7995818,0.07452556,-0.042760566,TREMOR,635380530830
1776131991135,18528699974930,-1.2737153,-4.2521024,8.310274,3.1422908,0.04520403,-0.02687807,TREMOR,635380530830
1776131991154,18528720024979,-1.2976574,-3.3375173,8.779537,2.0305161,0.0842994,0.0036651916,TREMOR,635380530830
1776131991174,18528740075028,-1.5442601,-1.4053963,8.24563,0.04886922,0.1563815,0.1001819,TREMOR,635380530830
1776131991201,18528760094559,-2.0446482,-2.9017725,7.800309,-2.2467623,0.17837265,0.12339478,TREMOR,635380530830
1776131991219,18528780114090,-1.733402,-5.2145715,8.042124,-3.4232888,0.08552113,0.09285152,TREMOR,635380530830
1776131991234,18528800194657,-1.520318,-6.5696893,7.965509,-3.1948252,0.07086037,0.052534413,TREMOR,635380530830
1776131991255,18528820214188,-1.3215994,-6.7013707,7.489063,-1.9559906,0.06352998,-0.010995574,TREMOR,635380530830
1776131991277,18528840264237,-1.3670892,-6.399701,7.2807674,-0.4166101,0.056199603,-0.118507855,TREMOR,635380530830
1776131991301,18528860283768,-1.3575124,-6.5361705,7.323863,0.9285152,-0.017104227,-0.19792034,TREMOR,635380530830
1776131991318,18528880303299,-1.2952632,-6.5984197,7.85777,2.1673498,-0.081855945,-0.30543262,TREMOR,635380530830
1776131991334,18528900353348,-1.1803415,-5.5042696,8.590396,3.023783,-0.1001819,-0.35185838,TREMOR,635380530830
1776131991355,18528920372879,-1.376666,-3.8043866,8.508993,2.8429668,-0.07941248,-0.2883284,TREMOR,635380530830
1776131991375,18528940392411,-1.5011644,-3.3039982,8.463503,1.7996091,-0.034208454,-0.18936823,TREMOR,635380530830
1776131991406,18528960411942,-1.2808979,-3.952827,8.678981,0.47891834,-0.010995574,-0.10262536,TREMOR,635380530830
1776131991415,18528980431473,-1.2641385,-4.2185836,8.841787,-0.3567453,0.09040806,-0.07941248,TREMOR,635380530830
1776131991435,18529000451004,-1.2138603,-3.5553896,8.832211,-0.98715824,0.14660765,-0.021991149,TREMOR,635380530830
1776131991454,18529020470536,-1.1731589,-3.3327289,8.331821,-1.926669,0.19303341,0.052534413,TREMOR,635380530830
1776131991475,18529040490067,-1.5275006,-4.27365,7.2592196,-3.3389895,0.22235495,0.16249016,TREMOR,635380530830
1776131991501,18529060509598,-1.7549498,-6.4164605,6.83784,-4.0964622,0.11362094,0.15393804,TREMOR,635380530830
1776131991518,18529080529129,-1.4796166,-7.4124484,6.7971387,-3.5100317,-0.004886922,0.073303826,TREMOR,635380530830
1776131991541,18529100579178,-1.352724,-8.963891,6.7013707,-1.7629571,-0.10262536,-0.0842994,TREMOR,635380530830
1776131991554,18529120598709,-0.90500826,-10.012551,6.943185,1.1068878,-0.16249016,-0.25167647,TREMOR,635380530830
1776131991575,18529140618241,-0.8714894,-7.273585,7.4986396,3.943746,-0.065973446,-0.38606682,TREMOR,635380530830
1776131991606,18529160637772,-1.3742718,-4.6591167,7.97748,5.272989,-0.02443461,-0.2406809,TREMOR,635380530830
1776131991615,18529180687821,-1.5729905,-2.779668,9.176975,4.5766025,0.029321533,-0.21380283,TREMOR,635380530830
1776131991644,18529200737870,-1.283292,-1.2952632,8.590396,2.0109684,0.05497787,-0.04642576,TREMOR,635380530830
1776131991655,18529220787918,-1.484405,-2.5378537,7.216124,-1.351234,0.119729586,0.17959438,TREMOR,635380530830
1776131991679,18529240837967,-1.6711528,-4.6710877,7.81228,-3.6651914,0.14905111,0.14172074,TREMOR,635380530830
1776131991707,18529260888016,-1.3910311,-6.325481,8.544906,-4.274835,0.12461651,0.11362094,TREMOR,635380530830
1776131991718,18529280968582,-1.0223241,-9.773131,8.176199,-2.910162,0.06963864,0.08307768,TREMOR,635380530830
1776131991736,18529301049149,-0.39264908,-8.549694,7.120356,0.5656612,0.13072516,-0.058643065,TREMOR,635380530830
1776131991758,18529321099198,-0.9648633,-4.9057193,7.1155677,3.467271,0.23335053,-0.13561209,TREMOR,635380530830
1776131991788,18529341179764,-1.6352397,-4.158728,7.9870567,4.0500364,0.18081611,0.019547688,TREMOR,635380530830
1776131991799,18529361229813,-1.6472107,-3.3614593,8.556877,3.2363641,0.057421334,-0.0720821,TREMOR,635380530830
1776131991824,18529381310379,-1.4341269,-2.6862943,8.025364,1.582141,0.002443461,-0.029321533,TREMOR,635380530830
1776131991838,18529401360428,-1.7956513,-3.095703,7.9487495,-0.26633725,0.0012217305,0.04520403,TREMOR,635380530830
1776131991855,18529421471512,-1.7860745,-3.98874,8.487445,-1.4489723,0.004886922,-0.034208454,TREMOR,635380530830
1776131991875,18529441491043,-1.6184803,-3.8977604,8.693346,-1.8936822,0.013439035,-0.036651913,TREMOR,635380530830
1776131991912,18529461541092,-1.6783354,-4.2904096,8.336611,-2.2088888,0.06352998,0.018325957,TREMOR,635380530830
1776131991920,18529481530106,-1.7166426,-4.4077253,8.073248,-2.3958135,0.061086524,0.05009095,TREMOR,635380530830
1776131991940,18529501580155,-1.673547,-4.630386,7.3047094,-2.824641,0.030543262,0.07941248,TREMOR,635380530830
1776131991955,18529521538651,-1.7046716,-5.791574,6.751649,-3.1972687,-0.002443461,0.04520403,TREMOR,635380530830
1776131991980,18529541588700,-1.5107412,-7.3406224,7.019799,-2.9394836,-0.089186326,-0.043982297,TREMOR,635380530830
1776131992002,18529561608231,-1.1324574,-8.973468,7.249643,-1.5198327,-0.20280726,-0.19058995,TREMOR,635380530830
1776131992018,18529581627762,-0.6823475,-9.682152,7.017405,1.0800097,-0.23090707,-0.33841935,TREMOR,635380530830
1776131992036,18529601647293,-0.7613561,-7.9152308,7.309498,3.3939674,-0.1282817,-0.30665436,TREMOR,635380530830
1776131992055,18529621666825,-1.2497733,-6.0118403,7.989451,4.450764,-0.119729586,-0.20158553,TREMOR,635380530830
1776131992077,18529641655838,-1.3862427,-3.9983168,8.094796,4.0634756,-0.07696902,-0.19547687,TREMOR,635380530830
1776131992103,18529661705887,-1.4197617,-3.0214825,8.058883,2.6511552,-0.034208454,-0.05131268,TREMOR,635380530830
1776131992115,18529681725418,-1.4173675,-2.8562827,8.418014,0.8063421,-0.019547688,0.09285152,TREMOR,635380530830
1776131992139,18529701683914,-1.3623008,-3.3063924,8.461109,-0.88697636,0.037873644,0.14660765,TREMOR,635380530830
1776131992157,18529721703446,-1.1755531,-4.235343,8.4826565,-1.8802432,0.080634214,0.20158553,TREMOR,635380530830
1776131992189,18529741753495,-1.1563994,-5.556942,8.9519205,-2.144137,0.12217305,0.2003638,TREMOR,635380530830
1776131992197,18529761773026,-1.103727,-7.4124484,8.343793,-1.351234,0.087964594,0.18936823,TREMOR,635380530830
1776131992219,18529781792557,-0.82121116,-6.658275,7.967903,0.7464773,0.111177474,0.05375614,TREMOR,635380530830
1776131992236,18529801842606,-0.9576807,-4.039018,8.714894,2.3005185,0.15760323,0.034208454,TREMOR,635380530830
1776131992255,18529821862137,-1.673547,-3.2393548,8.322245,2.2247713,0.12705997,0.052534413,TREMOR,635380530830
1776131992277,18529841881668,-1.5466543,-3.8977604,8.015787,1.5650368,-0.02076942,0.04886922,TREMOR,635380530830
1776131992308,18529861901200,-1.3359646,-3.7541082,8.331821,1.1838568,-0.04153884,-0.04642576,TREMOR,635380530830
1776131992318,18529881920731,-1.6783354,-2.9376855,8.853758,0.81000733,-0.02443461,-0.064751714,TREMOR,635380530830
1776131992346,18529901940262,-1.5993267,-2.4588451,8.793902,0.18692477,-0.02565634,-0.059864793,TREMOR,635380530830
1776131992356,18529922020829,-1.460463,-2.2290018,8.59279,-0.6291912,0.0012217305,-0.059864793,TREMOR,635380530830
1776131992384,18529942040360,-1.4413095,-2.1499932,8.303091,-1.9327776,0.021991149,0.02687807,TREMOR,635380530830
1776131992408,18529962090409,-1.8148049,-4.3502645,8.039729,-3.4758232,0.05497787,0.103847094,TREMOR,635380530830
1776131992418,18529982109940,-1.6927006,-6.7109475,7.608773,-4.034154,-0.015882496,0.13683382,TREMOR,635380530830
1776131992440,18530002129471,-1.3958195,-7.4363904,7.144298,-3.3915238,-0.07086037,0.10140363,TREMOR,635380530830
1776131992456,18530022149002,-1.4389153,-7.7907324,6.612785,-2.1282544,-0.13683382,0.015882496,TREMOR,635380530830
1776131992477,18530042199051,-0.9576807,-9.473856,7.740454,0.2125811,-0.21135938,-0.16493362,TREMOR,635380530830
1776131992501,18530062218582,-0.2633622,-7.73806,8.803479,3.0628784,-0.11362094,-0.2932153,TREMOR,635380530830
1776131992518,18530082207596,-0.7086837,-4.6160207,9.074024,4.478864,0.017104227,-0.18692477,TREMOR,635380530830
1776131992541,18530102257645,-1.3623008,-2.9400797,8.137892,4.0463715,0.034208454,-0.014660766,TREMOR,635380530830
1776131992556,18530122277176,-1.340753,-2.72939,8.159439,2.58396,0.058643065,0.06719518,TREMOR,635380530830
1776131992591,18530142327225,-1.2593501,-2.7820623,8.499416,1.078788,0.09407325,0.096516706,TREMOR,635380530830
1776131992597,18530162377274,-1.5370775,-2.0518308,8.090008,-0.59620446,0.13927728,0.18692477,TREMOR,635380530830
1776131992620,18530182396805,-1.7405846,-1.9393034,7.9128366,-2.7623327,0.15882497,0.25778514,TREMOR,635380530830
1776131992636,18530202446854,-2.1045034,-3.9815574,7.541735,-4.968778,0.19792034,0.29810223,TREMOR,635380530830
1776131992656,18530222466385,-2.123657,-7.4603324,7.7308774,-5.639508,0.13561209,0.29077184,TREMOR,635380530830
1776131992689,18530242516434,-1.6591818,-8.635885,7.029376,-4.514294,-0.012217305,0.2846632,TREMOR,635380530830
1776131992700,18530262566483,-1.0127473,-10.065224,6.5146227,-1.6896533,-0.12095132,0.12705997,TREMOR,635380530830
1776131992729,18530282616532,-0.78050977,-9.55047,6.8785415,1.9364429,0.015882496,-0.089186326,TREMOR,635380530830
1776131992738,18530302636063,-0.90979666,-7.357382,7.4842744,5.0982814,0.07452556,-0.267559,TREMOR,635380530830
1776131992761,18530322655594,-1.0845734,-4.924873,8.121132,6.7610564,0.0036651916,-0.118507855,TREMOR,635380530830
1776131992785,18530342705643,-1.8363527,-1.4580688,8.602366,6.145304,-0.02076942,-0.16249016,TREMOR,635380530830
1776131992808,18530362755692,-1.8914193,-0.94810385,7.9128366,3.7006216,-0.008552114,-0.029321533,TREMOR,635380530830
1776131992818,18530382836258,-1.6950948,-2.7150247,8.425196,1.9168952,0.014660766,0.02321288,TREMOR,635380530830
1776131992840,18530402947342,-1.70946,-1.7501614,8.990228,1.0103711,-0.035430185,0.042760566,TREMOR,635380530830
1776131992859,18530423027909,-1.8148049,-0.7015011,8.403648,-0.12950343,-0.012217305,0.02076942,TREMOR,635380530830
1776131992890,18530443108475,-1.3958195,-0.076614454,8.53054,-1.8851302,-0.02321288,-0.009773844,TREMOR,635380530830
1776131992900,18530463158524,-1.4413095,-0.9816227,8.1881695,-4.039041,0.043982297,-0.017104227,TREMOR,635380530830
1776131992918,18530483269608,-1.6017209,-4.0294414,7.491457,-5.89485,0.036651913,0.02443461,TREMOR,635380530830
1776131992940,18530503319657,-1.6639702,-8.516175,7.9343843,-6.0133576,-0.04642576,0.018325957,TREMOR,635380530830
1776131992957,18530523308670,-1.472434,-8.848969,8.39886,-4.047593,-0.07941248,-0.05497787,TREMOR,635380530830
1776131992987,18530543358719,-0.7302315,-10.0748005,7.654263,-0.2003638,-0.118507855,-0.21624629,TREMOR,635380530830
1776131993003,18530563378250,-0.6919243,-7.788338,7.678205,3.6651914,0.08674286,-0.30298916,TREMOR,635380530830
1776131993024,18530583428299,-1.1492168,-5.1642933,8.173804,5.551543,0.081855945,-0.3042109,TREMOR,635380530830
1776131993037,18530603447830,-1.4173675,-3.6727054,8.614338,5.6541686,0.02076942,-0.15027285,TREMOR,635380530830
1776131993059,18530623467362,-1.4030021,-1.7645266,8.420407,4.3359213,-0.03176499,-0.11484267,TREMOR,635380530830
1776131993095,18530643486893,-1.4389153,-1.7310078,8.054094,2.3591616,-0.052534413,0.02076942,TREMOR,635380530830
1776131993103,18530663506424,-1.5729905,-2.4420857,8.48984,1.0421361,-0.05009095,0.036651913,TREMOR,635380530830
1776131993124,18530683525955,-1.7238252,-2.078167,9.25359,0.30665436,-0.04886922,-0.02076942,TREMOR,635380530830
1776131993137,18530703576004,-1.4628572,-1.4628572,9.631873,-0.267559,-0.010995574,-0.010995574,TREMOR,635380530830
1776131993159,18530723626053,-1.3958195,-1.2521675,9.502586,-0.91996306,0.081855945,-0.02076942,TREMOR,635380530830
1776131993185,18530743615067,-1.376666,-1.7884687,8.59279,-1.6065756,0.13194689,0.002443461,TREMOR,635380530830
1776131993208,18530763665116,-1.2569559,-1.946486,8.734048,-2.2797492,0.103847094,-0.013439035,TREMOR,635380530830
1776131993221,18530783684647,-1.4077905,-3.9240966,9.169792,-3.0714304,0.052534413,-0.004886922,TREMOR,635380530830
1776131993243,18530803704178,-1.1611878,-7.513005,8.851364,-2.5216517,-0.065973446,-0.057421334,TREMOR,635380530830
1776131993258,18530823723709,-0.7158663,-7.7907324,9.19134,0.21624629,0.06841691,-0.14782938,TREMOR,635380530830
1776131993290,18530843743241,-1.055843,-4.951209,9.296685,3.055548,0.12705997,-0.12950343,TREMOR,635380530830
1776131993299,18530863793289,-1.2689269,-4.2521024,9.581595,4.4617596,0.22113322,-0.02443461,TREMOR,635380530830
1776131993319,18530883812821,-1.4508862,-2.2266076,9.0429,4.9626694,0.19425514,0.013439035,TREMOR,635380530830
1776131993338,18530903832352,-1.5873557,-0.031124622,8.571242,4.353026,0.10629055,0.103847094,TREMOR,635380530830
1776131993358,18530923851883,-1.7884687,0.2896984,8.259995,3.0763173,0.07452556,0.087964594,TREMOR,635380530830
1776131993385,18530943901932,-1.6232687,0.4405331,8.717288,1.9388863,0.009773844,0.028099801,TREMOR,635380530830
1776131993403,18530963921463,-1.6711528,0.81402856,9.126697,1.0885619,-0.0012217305,-0.02076942,TREMOR,635380530830
1776131993425,18530983940995,-1.697489,1.6400281,8.9758625,0.30665436,0.02076942,-0.0842994,TREMOR,635380530830
1776131993437,18531003960526,-1.5490485,2.0901382,8.640674,-0.8368854,0.030543262,-0.089186326,TREMOR,635380530830
1776131993459,18531023980057,-1.508347,1.7717092,8.6095495,-2.32984,0.058643065,-0.15027285,TREMOR,635380530830
1776131993486,18531044030106,-1.4413095,1.0414777,8.39886,-4.2308526,0.02321288,-0.17470746,TREMOR,635380530830
1776131993503,18531064049637,-1.376666,-1.460463,8.082825,-6.024353,-0.02321288,-0.18570304,TREMOR,635380530830
1776131993520,18531084069168,-1.6304513,-4.5753193,7.9750857,-6.921103,-0.058643065,-0.2003638,TREMOR,635380530830
1776131993538,18531104088700,-1.8698715,-6.9503675,8.597578,-6.295577,-0.112399206,-0.14905111,TREMOR,635380530830
1776131993558,18531124169266,-1.3263878,-10.850522,9.062054,-3.4342844,-0.20158553,-0.16982053,TREMOR,635380530830
1776131993588,18531144188797,-0.7589619,-10.953473,8.200141,1.3891076,-0.035430185,-0.1881465,TREMOR,635380530830
1776131993598,18531164208329,-0.9888053,-6.0285997,8.571242,5.6321774,0.03176499,-0.26389378,TREMOR,635380530830
1776131993632,18531184258377,-1.2689269,-1.8243817,8.832211,6.5252624,0.007330383,-0.095294975,TREMOR,635380530830
1776131993646,18531204308426,-1.5921441,-0.20829555,8.0445175,4.768414,-0.06841691,0.13927728,TREMOR,635380530830
1776131993660,18531224327957,-1.4460979,-0.8379706,7.4004774,2.910162,-0.17959438,0.1160644,TREMOR,635380530830
1776131993689,18531244378006,-1.484405,-0.37110126,8.305486,1.5650368,-0.22357668,-0.065973446,TREMOR,635380530830
1776131993698,18531264397538,-1.3982137,-0.15322891,9.136273,-0.07819075,-0.28099802,0.004886922,TREMOR,635380530830
1776131993731,18531284447586,-1.496376,0.16759412,9.449914,-1.6664404,-0.22235495,-0.052534413,TREMOR,635380530830
1776131993740,18531304497635,-1.1994951,-0.93134445,9.215282,-3.0396655,-0.14660765,-0.040317107,TREMOR,635380530830
1776131993759,18531324578202,-1.1061212,-2.2505496,8.825027,-4.019493,-0.09285152,-0.02687807,TREMOR,635380530830
1776131993785,18531344628250,-1.103727,-3.7445314,8.616732,-4.5631633,-0.05497787,-0.07696902,TREMOR,635380530830
1776131993802,18531364678299,-1.0702082,-6.042965,9.382876,-4.411669,-0.06352998,-0.118507855,TREMOR,635380530830
1776131993821,18531384697830,-0.6919243,-9.452309,9.203311,-2.483778,-0.12095132,-0.119729586,TREMOR,635380530830
1776131993841,18531404808914,-0.45250413,-8.293514,9.179369,0.9957104,0.04520403,-0.08674286,TREMOR,635380530830
1776131993873,18531424858963,-0.6440403,-6.3685765,8.887277,4.216192,0.14782938,-0.05497787,TREMOR,635380530830
1776131993896,18531444970047,-0.80684596,-4.355053,9.220071,5.7580156,0.20525073,0.042760566,TREMOR,635380530830
1776131993908,18531465050614,-0.9720459,-1.127669,8.47308,5.756794,0.15149458,0.17959438,TREMOR,635380530830
1776131993923,18531485070145,-1.2378023,0.39983168,7.7452426,4.49719,0.103847094,0.14049901,TREMOR,635380530830
1776131993942,18531505089676,-1.2449849,0.6536171,8.1163435,2.7672195,0.056199603,0.13805555,TREMOR,635380530830
1776131993970,18531525170243,-1.283292,1.1683705,9.229648,1.1643091,0.009773844,0.047647487,TREMOR,635380530830
1776131994017,18531545281327,-1.0630256,0.45968673,9.557653,-0.12095132,0.056199603,0.06841691,TREMOR,635380530830
1776131994019,18531565361893,-1.388637,1.2066777,9.143456,-1.1203269,0.06719518,0.059864793,TREMOR,635380530830
1776131994022,18531585442459,-1.1707647,0.6991069,8.700529,-2.3493876,0.08674286,0.017104227,TREMOR,635380530830
1776131994039,18531605492508,-1.1611878,-0.08379706,8.334216,-3.9913936,0.04520403,0.010995574,TREMOR,635380530830
1776131994060,18531625512039,-1.3072342,-1.9153614,8.4347725,-5.403714,0.008552114,-0.07452556,TREMOR,635380530830
1776131994090,18531645562088,-1.2952632,-4.4005427,8.803479,-6.030462,-0.052534413,-0.119729586,TREMOR,635380530830
1776131994100,18531665581620,-1.4628572,-7.101202,8.717288,-5.119051,-0.11728613,-0.15027285,TREMOR,635380530830
1776131994120,18531685631668,-1.0079589,-7.831434,8.59279,-2.5778513,-0.09773844,-0.119729586,TREMOR,635380530830
1776131994139,18531705651200,-0.8499416,-7.1826053,8.451532,0.2773328,-0.039095376,-0.089186326,TREMOR,635380530830
1776131994160,18531725670731,-0.8762778,-6.1507044,8.221688,2.2382102,-0.0061086523,-0.15149458,TREMOR,635380530830
1776131994192,18531745690262,-0.8690952,-4.996699,8.595184,2.950479,-0.013439035,-0.1441642,TREMOR,635380530830
1776131994201,18531765709793,-0.8403648,-3.454833,8.324639,2.5827382,-0.043982297,-0.065973446,TREMOR,635380530830
1776131994221,18531785729325,-1.079785,-2.3223755,7.788338,1.4453071,-0.04153884,-0.07574729,TREMOR,635380530830
1776131994239,18531805779373,-1.2210429,-2.8682537,8.556877,0.31764993,-0.059864793,-0.081855945,TREMOR,635380530830
1776131994261,18531825829422,-1.1252748,-2.1092918,8.74123,-1.105666,-0.08674286,0.043982297,TREMOR,635380530830
1776131994291,18531845879471,-1.2880806,-2.0326772,7.848193,-3.2974505,0.021991149,0.111177474,TREMOR,635380530830
1776131994301,18531865899002,-1.5705963,-5.0062757,7.0006456,-5.462357,0.04886922,0.16249016,TREMOR,635380530830
1776131994330,18531885918534,-1.3599066,-8.12592,7.098808,-6.043901,-0.043982297,0.1685988,TREMOR,635380530830
1776131994342,18531905968582,-0.9864111,-10.15381,7.455544,-4.4666467,-0.10629055,0.065973446,TREMOR,635380530830
1776131994371,18531925988114,-0.62009823,-10.350134,7.0126166,-1.2009611,-0.07574729,0.008552114,TREMOR,635380530830
1776131994386,18531946007645,-0.45729253,-8.070854,6.7205243,1.9828686,0.111177474,-0.062308256,TREMOR,635380530830
1776131994407,18531966027176,-0.93134445,-7.644686,6.8905125,4.056145,0.065973446,-0.06841691,TREMOR,635380530830
1776131994420,18531986077225,-1.0534488,-5.758055,7.7787614,5.007873,0.002443461,-0.15027285,TREMOR,635380530830
1776131994440,18532006096756,-0.9648633,-3.9217024,8.360553,4.4446554,-0.010995574,-0.0842994,TREMOR,635380530830
1776131994479,18532026146805,-1.1085154,-2.6671407,7.991845,2.7623327,0.040317107,-0.008552114,TREMOR,635380530830
1776131994484,18532046166336,-1.1300632,-2.5689783,8.020576,1.0030408,0.05375614,0.032986723,TREMOR,635380530830
1776131994508,18532066246903,-1.1228806,-1.8674773,8.329428,0.05131268,0.057421334,0.052534413,TREMOR,635380530830
1776131994520,18532086266434,-1.2378023,-3.064578,8.437167,-1.8655825,0.095294975,0.10262536,TREMOR,635380530830
1776131994542,18532106255448,-1.0366893,-3.916914,8.0684595,-3.4245105,0.111177474,0.16249016,TREMOR,635380530830
1776131994560,18532126274979,-1.3239936,-5.889736,7.6590514,-4.2540655,0.13561209,0.13805555,TREMOR,635380530830
1776131994580,18532146294510,-1.0582372,-8.056489,7.821857,-3.731165,0.02076942,0.06963864,TREMOR,635380530830
1776131994606,18532166314041,-0.5770026,-9.476251,7.1155677,-1.3524556,-0.037873644,-0.05009095,TREMOR,635380530830
1776131994620,18532186333573,-0.6943185,-7.785944,7.091625,1.7079792,0.105068825,-0.15149458,TREMOR,635380530830
1776131994640,18532206353104,-1.1204864,-6.3901243,7.6853876,3.5112534,0.111177474,-0.14905111,TREMOR,635380530830
1776131994669,18532226372635,-1.1420342,-5.2863975,8.303091,3.980398,0.032986723,-0.10262536,TREMOR,635380530830
1776131994689,18532246422684,-1.1468226,-3.2130187,8.504205,3.4489453,0.035430185,-0.111177474,TREMOR,635380530830
1776131994700,18532266442215,-1.292869,-2.719813,7.752425,1.881465,0.059864793,-0.013439035,TREMOR,635380530830
1776131994721,18532286461747,-1.4915876,-1.9800048,7.7428484,-0.1563815,0.04886922,0.0720821,TREMOR,635380530830
1776131994740,18532306481278,-1.5275006,-2.4875755,8.061277,-2.7488935,0.09773844,0.118507855,TREMOR,635380530830
1776131994772,18532326500809,-1.484405,-5.4300494,7.6949644,-4.6132545,0.052534413,0.17348573,TREMOR,635380530830
1776131994781,18532346520340,-1.3910311,-7.6614456,8.224083,-4.7024407,0.030543262,0.1441642,TREMOR,635380530830
1776131994805,18532366539872,-1.0342951,-10.235212,6.7923503,-2.525317,-0.10629055,0.008552114,TREMOR,635380530830
1776131994835,18532386559403,-0.62249243,-8.439561,6.6175733,0.90041536,0.007330383,-0.058643065,TREMOR,635380530830
1776131994840,18532406639969,-1.0654198,-6.555324,7.2185183,3.3487632,0.042760566,-0.06352998,TREMOR,635380530830
1776131994863,18532426690018,-1.3718776,-4.9775453,8.094796,4.010941,0.014660766,-0.09040806,TREMOR,635380530830
1776131994896,18532446740067,-1.0845734,-3.7062242,8.408437,3.3304374,-0.061086524,-0.09285152,TREMOR,635380530830
1776131994903,18532466820633,-1.1109096,-1.7262194,7.9750857,1.4489723,-0.061086524,0.013439035,TREMOR,635380530830
1776131994921,18532486840164,-1.5705963,-2.4349031,7.1107793,-1.2767084,-0.019547688,0.103847094,TREMOR,635380530830
1776131994942,18532506920731,-1.364695,-5.2289367,7.7069354,-3.299894,-0.10995574,0.096516706,TREMOR,635380530830
1776131994968,18532527001297,-1.3144168,-6.4739213,8.133103,-3.731165,-0.09407325,0.039095376,TREMOR,635380530830
1776131994987,18532547081864,-1.2569559,-7.3047094,7.8865004,-3.0286698,-0.0720821,0.05375614,TREMOR,635380530830
1776131995003,18532567162430,-0.8403648,-8.511387,7.0605006,-1.3402383,-0.12583824,0.018325957,TREMOR,635380530830
1776131995022,18532587212479,-0.7206547,-8.595184,6.849811,1.1093313,-0.07819075,-0.11362094,TREMOR,635380530830
1776131995047,18532607293045,-0.8619126,-7.369353,7.630321,3.2302554,-0.04153884,-0.15882497,TREMOR,635380530830
1776131995073,18532627373612,-0.9983821,-5.1666875,8.537724,4.166101,-0.018325957,-0.1685988,TREMOR,635380530830
1776131995084,18532647484696,-0.94570965,-3.0621839,8.619126,3.1936035,0.042760566,-0.029321533,TREMOR,635380530830
1776131995109,18532667565262,-1.0965444,-2.6862943,8.525752,1.7470746,0.12461651,0.064751714,TREMOR,635380530830
1776131995121,18532687615311,-1.2090719,-2.731784,8.477868,0.93828905,0.13683382,0.1001819,TREMOR,635380530830
1776131995142,18532707634842,-1.2282255,-2.0757728,8.48984,-0.6658431,0.16249016,0.08552113,TREMOR,635380530830
1776131995170,18532727654373,-1.2066777,-2.755726,8.207323,-2.3726006,0.17837265,0.10751228,TREMOR,635380530830
1776131995182,18532747704422,-1.1731589,-4.3526587,7.9870567,-3.5124753,0.14660765,0.12339478,TREMOR,635380530830
1776131995202,18532767723954,-1.2808979,-5.7149596,7.833828,-3.803247,0.11484267,0.095294975,TREMOR,635380530830
1776131995222,18532787743485,-1.2761095,-7.5968018,7.1993647,-3.1264083,0.0061086523,0.05009095,TREMOR,635380530830
1776131995242,18532807793534,-1.163582,-7.45315,6.9240313,-1.4514158,-0.037873644,-0.035430185,TREMOR,635380530830
1776131995281,18532827813065,-1.3455414,-7.015011,7.050924,0.172264,-0.043982297,-0.089186326,TREMOR,635380530830
1776131995292,18532847832596,-1.4030021,-7.3525934,7.4148426,1.3891076,-0.11362094,-0.2443461,TREMOR,635380530830
1776131995301,18532867821610,-1.0199299,-7.3909006,7.8865004,2.7537806,-0.16371189,-0.34208453,TREMOR,635380530830
1776131995322,18532887871659,-0.9864111,-5.2145715,8.7125,3.7788124,-0.089186326,-0.312763,TREMOR,635380530830
1776131995342,18532907891190,-1.2569559,-3.1411927,8.839393,3.376863,0.002443461,-0.23090707,TREMOR,635380530830
1776131995381,18532927910721,-1.1587936,-3.2465374,8.437167,2.1038198,0.052534413,-0.16493362,TREMOR,635380530830
1776131995387,18532947930252,-0.90979666,-3.8259344,8.420407,1.2278391,0.06841691,-0.1600467,TREMOR,635380530830
1776131995404,18532967980301,-0.8643068,-3.2680852,8.889671,0.53878313,0.12705997,-0.18081611,TREMOR,635380530830
1776131995422,18532987999832,-0.94570965,-2.2505496,8.585608,-0.44715336,0.16493362,-0.18448131,TREMOR,635380530830
1776131995443,18533007988846,-0.9504981,-2.9376855,7.967903,-1.8032742,0.17470746,-0.15760323,TREMOR,635380530830
1776131995469,18533028038895,-1.0103531,-4.2544966,7.8170686,-2.9174924,0.16737708,-0.10140363,TREMOR,635380530830
1776131995486,18533048058426,-1.163582,-5.710171,7.831434,-3.4807103,0.12583824,-0.06352998,TREMOR,635380530830
1776131995502,18533068077957,-1.283292,-6.931214,7.5561004,-3.3744197,0.056199603,-0.021991149,TREMOR,635380530830
1776131995522,18533088097489,-1.2138603,-8.202535,6.6654577,-2.3445008,-0.08307768,-0.019547688,TREMOR,635380530830
1776131995542,18533108055985,-0.94092125,-7.869741,6.9719152,-0.59864795,-0.07819075,-0.1001819,TREMOR,635380530830
1776131995572,18533128075516,-1.0390835,-7.2783732,7.4866686,0.7318166,-0.073303826,-0.112399206,TREMOR,635380530830
1776131995582,18533148095047,-0.90740246,-7.441179,7.603985,1.6285667,-0.14660765,-0.11484267,TREMOR,635380530830
1776131995606,18533168084061,-0.770933,-6.991069,7.726089,2.2186625,-0.1282817,-0.10262536,TREMOR,635380530830
1776131995624,18533188103592,-0.78290397,-5.674258,8.317456,2.3994787,-0.065973446,-0.02687807,TREMOR,635380530830
1776131995656,18533208123123,-1.0175357,-4.560954,8.348581,1.894904,0.032986723,0.080634214,TREMOR,635380530830
1776131995664,18533228142655,-0.9552865,-3.4620156,8.135497,0.8564331,0.07452556,0.17715092,TREMOR,635380530830
1776131995699,18533248162186,-1.055843,-3.1435869,7.9607205,-0.7049385,0.118507855,0.22602014,TREMOR,635380530830
1776131995707,18533268181717,-1.2306197,-3.8666358,7.797915,-2.3371704,0.09896017,0.24801129,TREMOR,635380530830
1776131995723,18533288201248,-1.2114661,-5.4779334,7.45315,-3.40985,0.07819075,0.23823744,TREMOR,635380530830
1776131995754,18533308251297,-1.2354081,-6.919243,7.3406224,-3.4245105,0.043982297,0.19547687,TREMOR,635380530830
1776131995769,18533328270829,-1.0869676,-7.821857,7.297527,-2.5094345,0.014660766,0.14905111,TREMOR,635380530830
1776131995786,18533348290360,-0.8571242,-8.966286,6.8689647,-0.61086524,-0.1001819,0.017104227,TREMOR,635380530830
1776131995810,18533368309891,-0.82121116,-8.221688,6.9264255,1.9889772,-0.07819075,-0.18692477,TREMOR,635380530830
1776131995822,18533388329422,-0.90979666,-6.83784,7.656657,4.0634756,-0.09162979,-0.1966986,TREMOR,635380530830
1776131995842,18533408348954,-1.0534488,-4.999093,8.62152,4.7623053,-0.0842994,-0.15760323,TREMOR,635380530830
1776131995874,18533428368485,-1.0630256,-3.1555579,8.497022,3.8924334,-0.002443461,-0.035430185,TREMOR,635380530830
1776131995883,18533448357498,-1.2761095,-2.7389667,8.324639,2.2675319,0.12217305,0.037873644,TREMOR,635380530830
1776131995914,18533468407547,-1.3479356,-2.6503813,8.133103,0.59742624,0.096516706,0.08674286,TREMOR,635380530830
1776131995925,18533488488114,-1.3024458,-2.1308396,8.23366,-1.1007792,0.087964594,0.065973446,TREMOR,635380530830
1776131995955,18533508507645,-1.2282255,-3.2585084,8.063671,-2.9089403,0.09896017,0.10995574,TREMOR,635380530830
1776131995964,18533528557694,-1.2282255,-5.499481,8.087613,-3.907094,0.1001819,0.087964594,TREMOR,635380530830
1776131995990,18533548638260,-1.0271125,-7.699753,8.204929,-3.612657,0.07941248,0.095294975,TREMOR,635380530830
1776131996004,18533568718827,-0.90500826,-8.343793,7.455544,-2.0708332,0.04886922,0.0720821,TREMOR,635380530830
1776131996025,18533588768875,-0.90261406,-7.8050976,7.180211,0.376293,0.014660766,-0.056199603,TREMOR,635380530830
1776131996046,18533608849442,-1.0271125,-8.324639,7.680599,2.9431489,0.02076942,-0.20647246,TREMOR,635380530830
1776131996072,18533628868973,-0.8690952,-6.3925185,8.949526,4.866153,0.052534413,-0.16737708,TREMOR,635380530830
1776131996085,18533648949539,-1.3096284,-3.5697548,9.320627,5.240002,0.13439035,-0.13072516,TREMOR,635380530830
1776131996105,18533669030106,-1.4077905,-2.1691468,8.6095495,4.1587706,0.21868975,-0.018325957,TREMOR,635380530830
1776131996125,18533689110672,-1.2952632,-1.5897499,8.350976,2.6816983,0.28099802,0.030543262,TREMOR,635380530830
1776131996161,18533709160721,-1.436521,-1.3192052,8.542512,1.428203,0.32620203,-0.019547688,TREMOR,635380530830
1776131996167,18533729241288,-1.520318,-0.58657944,8.415619,0.36163223,0.28221974,-0.05375614,TREMOR,635380530830
1776131996189,18533749230301,-1.4053963,0.5291186,8.02297,-1.894904,0.21746802,0.040317107,TREMOR,635380530830
1776131996204,18533769280350,-1.4987702,-1.6160861,7.3789296,-4.802623,0.23090707,0.064751714,TREMOR,635380530830
1776131996223,18533789330399,-1.7118542,-5.0134583,6.799533,-6.546032,0.12950343,0.05375614,TREMOR,635380530830
1776131996258,18533809380448,-1.7405846,-8.212111,7.6470804,-6.4947195,0.010995574,0.030543262,TREMOR,635380530830
1776131996263,18533829399979,-1.7764976,-9.382876,6.567295,-4.7623053,-0.13316862,0.029321533,TREMOR,635380530830
1776131996298,18533849419510,-1.7046716,-8.252813,5.7005944,-1.7776178,-0.18570304,-0.07574729,TREMOR,635380530830
1776131996303,18533869408524,-1.4413095,-8.8777,6.361394,1.2144,-0.27977628,-0.17837265,TREMOR,635380530830
1776131996326,18533889458573,-1.3599066,-7.9942393,7.831434,3.5674531,-0.30665436,-0.3359759,TREMOR,635380530830
1776131996358,18533909478104,-1.0534488,-5.779603,8.506598,4.808731,-0.32375857,-0.25778514,TREMOR,635380530830
1776131996364,18533929497635,-1.0869676,-3.4524388,8.556877,4.2186356,-0.23701571,-0.15027285,TREMOR,635380530830
1776131996392,18533949547684,-1.2737153,-2.779668,7.9942393,2.194228,-0.1441642,0.02565634,TREMOR,635380530830
1776131996403,18533969567215,-1.3670892,-3.1268275,7.702147,0.09285152,-0.111177474,0.10995574,TREMOR,635380530830
1776131996432,18533989586747,-1.2497733,-3.6870706,8.169016,-1.4636332,-0.12950343,0.13683382,TREMOR,635380530830
1776131996460,18534009606278,-1.4293385,-5.046977,8.848969,-2.5644124,-0.12583824,0.14049901,TREMOR,635380530830
1776131996467,18534029656327,-0.93613285,-8.1163435,8.829816,-2.3200662,-0.17715092,0.09773844,TREMOR,635380530830
1776131996486,18534049675858,-0.38067806,-8.00621,8.312668,-0.20280726,-0.0720821,0.05497787,TREMOR,635380530830
1776131996503,18534069695389,-0.51475334,-6.993463,8.420407,2.3603833,0.034208454,0.05497787,TREMOR,635380530830
1776131996525,18534089714920,-0.8403648,-5.805939,8.635885,4.2907176,0.15027285,0.07452556,TREMOR,635380530830
1776131996552,18534109734452,-1.1492168,-1.9871874,8.772355,4.863709,0.12217305,0.040317107,TREMOR,635380530830
1776131996569,18534129784500,-1.3144168,-0.47644615,8.408437,3.6603045,0.10995574,0.17104226,TREMOR,635380530830
1776131996586,18534149773514,-1.3814543,-1.1300632,8.243237,2.0048597,0.10873401,0.13561209,TREMOR,635380530830
1776131996603,18534169823563,-1.3335704,-1.2090719,8.678981,0.82833326,0.039095376,0.04886922,TREMOR,635380530830
1776131996623,18534189873612,-1.3479356,-0.59136784,8.6813755,-0.1001819,-0.03176499,-0.02687807,TREMOR,635380530830
1776131996649,18534209893143,-1.2856863,-0.45729253,8.549694,-1.2999213,-0.080634214,-0.02321288,TREMOR,635380530830
1776131996670,18534229943192,-1.2066777,-1.4915876,8.966286,-2.5583036,-0.0842994,-0.07696902,TREMOR,635380530830
1776131996686,18534249962723,-1.091756,-3.8546648,9.349358,-3.378085,-0.10140363,-0.047647487,TREMOR,635380530830
1776131996703,18534270012772,-1.328782,-5.791574,8.379706,-2.9859092,-0.14172074,-0.040317107,TREMOR,635380530830
1776131996724,18534290062821,-1.1851299,-5.901707,8.173804,-1.5381587,-0.21013765,-0.080634214,TREMOR,635380530830
1776131996745,18534310112870,-0.9744401,-5.3223104,9.085996,-0.33353242,-0.172264,-0.073303826,TREMOR,635380530830
1776131996769,18534330132401,-1.1180922,-5.434838,9.239224,0.29932398,-0.06352998,-0.035430185,TREMOR,635380530830
1776131996786,18534350182450,-0.8523358,-4.9679685,9.021352,0.8491027,-0.036651913,-0.021991149,TREMOR,635380530830
1776131996804,18534370263016,-0.82360536,-3.9121256,8.880095,1.0360274,0.02687807,0.014660766,TREMOR,635380530830
1776131996826,18534390313065,-0.8738836,-3.4261026,8.350976,0.68416905,0.081855945,0.029321533,TREMOR,635380530830
1776131996852,18534410363114,-0.8762778,-2.1883004,8.451532,0.09896017,0.09040806,0.010995574,TREMOR,635380530830
1776131996872,18534430413163,-1.0366893,-0.5315128,8.39886,-1.8167132,0.09162979,0.07452556,TREMOR,635380530830
1776131996889,18534450432694,-1.8507179,-3.3925838,6.10282,-4.6230283,0.056199603,0.19792034,TREMOR,635380530830
1776131996904,18534470482743,-1.7669208,-7.541735,6.469133,-6.081774,-0.17470746,0.15760323,TREMOR,635380530830
1776131996926,18534490502274,-1.091756,-11.288661,7.61835,-4.8942523,-0.2846632,0.007330383,TREMOR,635380530830
1776131996952,18534510552323,-0.16519992,-10.953473,7.5680714,-1.0995574,-0.1881465,-0.06719518,TREMOR,635380530830
1776131996970,18534530571854,-0.33279404,-7.2783732,6.9503675,2.4947736,0.07086037,-0.12095132,TREMOR,635380530830
1776131996990,18534550591385,-1.2330139,-6.131551,7.3789296,3.9498546,0.13561209,-0.019547688,TREMOR,635380530830
1776131997005,18534570610916,-1.1204864,-5.0062757,7.9463553,3.9596286,0.028099801,-0.12217305,TREMOR,635380530830
1776131997025,18534590691483,-0.6655881,-3.2130187,8.50181,3.0127873,0.014660766,-0.09162979,TREMOR,635380530830
1776131997053,18534610741532,-1.2378023,-1.8626889,7.6734166,0.9236283,0.06841691,0.035430185,TREMOR,635380530830
1776131997070,18534630791580,-1.5897499,-3.2585084,7.326257,-1.5247196,0.039095376,0.096516706,TREMOR,635380530830
1776131997086,18534650872147,-1.2976574,-5.8442464,7.843405,-2.879619,-0.07696902,0.052534413,TREMOR,635380530830
1776131997108,18534670952713,-1.0199299,-9.040505,8.6334915,-2.2553146,-0.10629055,-0.019547688,TREMOR,635380530830
1776131997127,18534691033280,-0.31603462,-9.090784,8.271967,0.3200934,-0.018325957,-0.014660766,TREMOR,635380530830
1776131997154,18534711113846,-0.60094464,-4.903325,7.762002,2.7501154,0.12950343,-0.11362094,TREMOR,635380530830
1776131997174,18534731194413,-1.0869676,-3.7373488,8.317456,3.2119296,0.14172074,0.04886922,TREMOR,635380530830
1776131997187,18534751244461,-1.0606314,-3.2872388,8.537724,2.4312437,0.05497787,0.02321288,TREMOR,635380530830
1776131997207,18534771325028,-0.90740246,-3.3494883,8.094796,1.3353515,0.02443461,0.056199603,TREMOR,635380530830
1776131997237,18534791436112,-1.484405,-3.3159695,7.893683,0.37384954,0.05375614,0.040317107,TREMOR,635380530830
1776131997255,18534811486161,-1.5562311,-4.1539397,8.669404,-0.26145032,-0.007330383,-0.021991149,TREMOR,635380530830
1776131997276,18534831597245,-1.3072342,-3.2441432,9.01417,-0.54244834,-0.02687807,-0.04520403,TREMOR,635380530830
1776131997288,18534851677811,-1.103727,-2.315193,8.343793,-1.2266175,-0.0061086523,0.02443461,TREMOR,635380530830
1776131997305,18534871758377,-1.1085154,-2.4133554,7.9631147,-1.9352211,0.017104227,0.112399206,TREMOR,635380530830
1776131997331,18534891777909,-1.3000516,-4.295198,7.668628,-3.571118,0.039095376,0.18448131,TREMOR,635380530830
1776131997352,18534911797440,-1.2569559,-6.739678,7.3430166,-4.5399504,-0.043982297,0.16982053,TREMOR,635380530830
1776131997375,18534931816971,-0.9672575,-8.221688,7.0700774,-4.1037927,-0.12461651,0.12950343,TREMOR,635380530830
1776131997388,18534951867020,-0.78050977,-8.415619,7.326257,-2.356718,-0.10629055,0.009773844,TREMOR,635380530830
1776131997405,18534971886551,-0.6727707,-8.525752,7.1826053,-0.030543262,-0.07086037,-0.103847094,TREMOR,635380530830
1776131997426,18534991936600,-0.7757214,-8.437167,7.117962,2.1697934,-0.013439035,-0.18325958,TREMOR,635380530830
1776131997457,18535011956131,-0.7326257,-6.9623384,7.627927,3.676187,0.0036651916,-0.19058995,TREMOR,635380530830
1776131997465,18535031975663,-0.866701,-4.9679685,8.183381,3.9913936,0.037873644,-0.19792034,TREMOR,635380530830
1776131997494,18535052025711,-1.1109096,-3.4500446,7.9463553,2.9956832,0.080634214,-0.10629055,TREMOR,635380530830
1776131997507,18535072045243,-1.1300632,-2.2720973,7.615956,1.1093313,0.04520403,0.04153884,TREMOR,635380530830
1776131997526,18535092064774,-1.5251064,-2.0326772,7.177817,-1.958434,0.06963864,0.18448131,TREMOR,635380530830
1776131997547,18535112084305,-1.7118542,-5.9878983,6.9407907,-4.641354,-0.008552114,0.26145032,TREMOR,635380530830
1776131997575,18535132103836,-1.2593501,-8.552089,7.1466923,-5.1251593,-0.081855945,0.22235495,TREMOR,635380530830
1776131997586,18535152184403,-0.93373865,-9.030929,7.2687964,-3.4855971,-0.06841691,0.1282817,TREMOR,635380530830
1776131997606,18535172234452,-0.59376204,-8.662222,6.7827735,-1.065349,0.02565634,0.058643065,TREMOR,635380530830
1776131997629,18535192253983,-0.6943185,-8.413225,6.4787097,1.2559389,0.080634214,-0.012217305,TREMOR,635380530830
1776131997657,18535212273514,-0.8571242,-7.429208,6.945579,2.9907963,0.07574729,-0.112399206,TREMOR,635380530830
1776131997673,18535232323563,-1.0319009,-5.9759274,7.445967,3.771482,0.015882496,-0.16493362,TREMOR,635380530830
1776131997687,18535252343094,-1.1372458,-4.3957543,7.6590514,3.241251,-0.02321288,-0.17348573,TREMOR,635380530830
1776131997706,18535272393143,-1.4580688,-4.084508,7.6351094,1.8729129,-0.032986723,-0.09040806,TREMOR,635380530830
1776131997726,18535292412674,-1.3790601,-4.4819455,7.9224133,0.47403142,-0.065973446,-0.010995574,TREMOR,635380530830
1776131997756,18535312493241,-1.1683705,-4.8961425,8.449138,-0.5571091,-0.056199603,0.065973446,TREMOR,635380530830
1776131997771,18535332543289,-0.8762778,-3.383007,8.327033,-1.7421877,0.004886922,0.16493362,TREMOR,635380530830
1776131997786,18535352593338,-1.3503298,-4.343082,6.993463,-3.8582249,0.15271631,0.3042109,TREMOR,635380530830
1776131997813,18535372612870,-1.4652514,-7.467515,5.9448028,-5.347514,0.06352998,0.37507126,TREMOR,635380530830
1776131997827,18535392662918,-1.127669,-9.461885,5.6646814,-4.90647,-0.028099801,0.27977628,TREMOR,635380530830
1776131997861,18535412712967,-0.94810385,-9.382876,5.973533,-3.0579915,-0.002443461,0.14049901,TREMOR,635380530830
1776131997870,18535432763016,-0.7302315,-10.0029745,5.805939,-0.43249258,-0.013439035,-0.040317107,TREMOR,635380530830
1776131997891,18535452782547,-0.6392518,-9.701305,5.949591,2.3811526,0.04886922,-0.15027285,TREMOR,635380530830
1776131997906,18535472832596,-0.92176765,-8.322245,5.841852,4.8099527,0.057421334,-0.20769419,TREMOR,635380530830
1776131997930,18535492852127,-1.1923125,-6.1387334,6.88333,5.839872,-0.0036651916,-0.21624629,TREMOR,635380530830
1776131997958,18535512902176,-1.412579,-3.9576154,7.989451,5.021312,-0.010995574,-0.22479841,TREMOR,635380530830
1776131997967,18535532952225,-1.3790601,-2.504335,7.7787614,2.7769935,0.0061086523,-0.05375614,TREMOR,635380530830
1776131997999,18535553002274,-1.6256629,-2.2936451,7.0245876,-0.31887165,0.056199603,0.19425514,TREMOR,635380530830
1776131998013,18535573021805,-1.9009962,-4.9176903,7.4507556,-2.9944615,-0.0012217305,0.23579398,TREMOR,635380530830
1776131998044,18535593041336,-1.6041151,-7.1586633,7.335834,-4.1270056,-0.1001819,0.22602014,TREMOR,635380530830
1776131998049,18535613060868,-1.163582,-8.02297,7.9511437,-3.4684927,-0.061086524,0.103847094,TREMOR,635380530830
1776131998070,18535633080399,-0.6991069,-9.461885,7.0940194,-1.3402383,-0.07452556,0.036651913,TREMOR,635380530830
1776131998088,18535653130448,-0.36152446,-7.955932,7.065289,1.4391985,0.081855945,-0.05497787,TREMOR,635380530830
1776131998109,18535673149979,-0.82599956,-6.205771,7.302315,3.336546,0.14660765,-0.087964594,TREMOR,635380530830
1776131998136,18535693169510,-1.2138603,-5.0541596,7.917625,3.8912115,0.10873401,-0.111177474,TREMOR,635380530830
1776131998152,18535713189041,-1.1947067,-3.8642416,8.271967,3.218038,0.043982297,-0.15515977,TREMOR,635380530830
1776131998199,18535733208573,-1.3934253,-3.2632968,7.4723034,1.5418239,0.015882496,-0.056199603,TREMOR,635380530830
1776131998202,18535753289139,-1.7070658,-3.8786068,7.5321584,-0.081855945,-0.0061086523,-0.0036651916,TREMOR,635380530830
1776131998238,18535773339188,-1.4460979,-4.3861775,8.336611,-1.2021828,-0.08307768,0.029321533,TREMOR,635380530830
1776131998245,18535793389237,-1.1228806,-3.3494883,7.869741,-2.6267207,-0.042760566,0.14905111,TREMOR,635380530830
1776131998264,18535813500321,-1.6041151,-5.5737014,6.8641763,-4.4177775,0.03176499,0.2761111,TREMOR,635380530830
1776131998270,18535833550370,-1.4508862,-7.788338,6.3661823,-5.032308,-0.08307768,0.27488935,TREMOR,635380530830
1776131998291,18535853630936,-1.1228806,-8.312668,6.1650696,-4.224744,-0.073303826,0.16371189,TREMOR,635380530830
1776131998311,18535873711502,-1.079785,-8.62152,6.0501475,-2.7769935,-0.065973446,0.06352998,TREMOR,635380530830
1776131998337,18535893792069,-1.0127473,-8.882488,6.0716953,-1.1129965,-0.052534413,-0.042760566,TREMOR,635380530830
1776131998359,18535913842118,-1.0151415,-9.734824,5.650316,0.7623598,-0.12461651,-0.13561209,TREMOR,635380530830
1776131998370,18535933983719,-1.0869676,-9.378088,5.7843914,2.792876,-0.1441642,-0.26633725,TREMOR,635380530830
1776131998390,18535954064286,-0.8379706,-7.93199,6.421249,4.3774605,-0.18203785,-0.27488935,TREMOR,635380530830
1776131998412,18535974144852,-0.8451532,-5.9567738,7.620744,4.7781878,-0.11728613,-0.2284636,TREMOR,635380530830
1776131998438,18535994194901,-0.9935937,-4.572925,8.312668,3.8521163,-0.037873644,-0.10629055,TREMOR,635380530830
1776131998448,18536014275467,-0.82121116,-2.5498247,8.046912,1.6713274,0.05009095,0.089186326,TREMOR,635380530830
1776131998478,18536034294998,-1.2761095,-2.3080103,6.9000893,-1.7189748,0.16982053,0.31031954,TREMOR,635380530830
1776131998489,18536054314530,-1.8602947,-5.8562174,6.4547677,-4.8991394,0.12705997,0.41783184,TREMOR,635380530830
1776131998515,18536074334061,-1.520318,-8.875306,6.4380083,-5.856976,0.017104227,0.35185838,TREMOR,635380530830
1776131998538,18536094353592,-0.9768343,-9.186552,6.5026517,-4.454429,0.04886922,0.267559,TREMOR,635380530830
1776131998548,18536114373123,-0.8451532,-8.271967,5.8681884,-2.1673498,0.15882497,0.16249016,TREMOR,635380530830
1776131998570,18536134392655,-1.0845734,-8.834604,5.2026005,-0.0720821,0.12583824,0.05497787,TREMOR,635380530830
1776131998591,18536154381668,-1.127669,-8.973468,5.29358,1.9840903,0.032986723,-0.12705997,TREMOR,635380530830
1776131998609,18536174431717,-1.1611878,-7.7189064,5.887342,3.5674531,-0.052534413,-0.29810223,TREMOR,635380530830
1776131998642,18536194420731,-1.3335704,-6.6750345,6.7085533,4.015828,-0.13194689,-0.29810223,TREMOR,635380530830
1776131998654,18536214470780,-1.4820108,-5.695806,6.967127,3.3915238,-0.19181168,-0.26267207,TREMOR,635380530830
1776131998670,18536234490311,-1.4173675,-5.4420204,7.07726,2.1184807,-0.2321288,-0.17470746,TREMOR,635380530830
1776131998688,18536254509842,-1.3359646,-5.6766524,7.589619,0.73914695,-0.21624629,-0.047647487,TREMOR,635380530830
1776131998708,18536274529373,-1.2354081,-5.837064,7.9224133,-0.24923302,-0.18203785,0.036651913,TREMOR,635380530830
1776131998737,18536294548905,-1.0414777,-6.2728086,7.8984714,-0.6426302,-0.14172074,0.09285152,TREMOR,635380530830
1776131998753,18536314568436,-0.8690952,-6.8402343,7.7907324,-0.40317106,-0.0720821,0.118507855,TREMOR,635380530830
1776131998770,18536334587967,-0.79487497,-6.4619503,7.8984714,0.18448131,-0.015882496,0.11728613,TREMOR,635380530830
1776131998792,18536354607498,-0.81163436,-6.0836663,7.6949644,0.66950834,0.040317107,0.061086524,TREMOR,635380530830
1776131998808,18536374627030,-0.50517654,-6.7564373,7.702147,0.61086524,0.035430185,0.019547688,TREMOR,635380530830
1776131998836,18536394646561,-0.46447513,-6.4906807,7.8386164,0.21991149,0.11362094,0.04642576,TREMOR,635380530830
1776131998854,18536414666092,-1.1611878,-4.173094,7.6111674,0.087964594,0.25534168,-0.0061086523,TREMOR,635380530830
1776131998872,18536434685623,-1.4772224,-3.371036,6.8306575,-0.5290093,0.12095132,0.0720821,TREMOR,635380530830
1776131998889,18536454705155,-1.1348516,-7.065289,7.565677,-1.0005972,-0.13316862,0.013439035,TREMOR,635380530830
1776131998910,18536474724686,-0.40701428,-9.291897,8.236053,0.3005457,-0.19303341,-0.021991149,TREMOR,635380530830
1776131998940,18536494744217,-0.92416185,-6.007052,8.401254,2.3445008,0.04886922,-0.0061086523,TREMOR,635380530830
1776131998950,18536514763748,-1.6232687,-4.3406878,8.197746,3.018896,0.15149458,0.21135938,TREMOR,635380530830
1776131998982,18536534813797,-1.5179238,-2.7269957,8.781932,2.3738225,0.15149458,0.13561209,TREMOR,635380530830
1776131999011,18536554863846,-1.3718776,0.045489833,8.264784,0.028099801,0.18325958,0.17470746,TREMOR,635380530830
1776131999013,18536574883377,-2.0685902,-2.8323407,7.369353,-3.0860913,0.24556783,0.22113322,TREMOR,635380530830
1776131999042,18536594902909,-1.5298948,-6.2464724,7.326257,-4.8991394,0.12217305,0.1160644,TREMOR,635380530830
1776131999049,18536614922440,-1.283292,-7.357382,7.3310456,-4.569272,0.15760323,0.004886922,TREMOR,635380530830
1776131999070,18536634941971,-1.0630256,-8.121132,6.7348895,-3.0641,0.14538592,0.019547688,TREMOR,635380530830
1776131999090,18536654961502,-0.9528923,-8.765172,5.9519854,-0.93828905,0.10262536,-0.029321533,TREMOR,635380530830
1776131999112,18536674981034,-1.0366893,-8.307879,5.8226986,1.1948525,0.07452556,-0.16982053,TREMOR,635380530830
1776131999142,18536695000565,-1.2569559,-6.88333,6.2105594,2.6462681,-0.013439035,-0.31398472,TREMOR,635380530830
1776131999153,18536715020096,-1.2306197,-5.961562,6.8569937,3.2742376,-0.15271631,-0.34330627,TREMOR,635380530830
1776131999178,18536735039627,-1.2856863,-5.425261,8.080431,2.9675834,-0.20647246,-0.33841935,TREMOR,635380530830
1776131999189,18536755059159,-1.2761095,-5.106832,8.4347725,1.863139,-0.18570304,-0.25411993,TREMOR,635380530830
1776131999209,18536775078690,-1.2258313,-5.183447,7.8649526,0.5510005,-0.14294247,-0.13805555,TREMOR,635380530830
1776131999241,18536795128739,-1.2641385,-5.98311,8.070854,-0.27977628,-0.087964594,-0.07574729,TREMOR,635380530830
1776131999249,18536815178788,-1.079785,-6.9024835,8.221688,-0.24923302,-0.056199603,-0.02565634,TREMOR,635380530830
1776131999273,18536835228836,-0.7422025,-6.519411,8.334216,0.34330627,0.028099801,0.028099801,TREMOR,635380530830
1776131999291,18536855309403,-0.8475474,-5.6431336,8.101978,0.8258898,0.12583824,0.10140363,TREMOR,635380530830
1776131999314,18536875359452,-0.9552865,-4.9105077,8.171411,0.893085,0.16615535,0.13194689,TREMOR,635380530830
1776131999331,18536895409500,-0.93134445,-4.3646297,8.049306,0.6169739,0.16126843,0.14172074,TREMOR,635380530830
1776131999353,18536915459549,-1.1731589,-4.4101195,8.195353,0.20158553,0.15149458,0.14660765,TREMOR,635380530830
1776131999371,18536935540116,-1.3694834,-4.6471453,8.073248,-0.23335053,0.12583824,0.15027285,TREMOR,635380530830
1776131999391,18536955559647,-1.3096284,-4.357447,7.93199,-0.5900958,0.096516706,0.13439035,TREMOR,635380530830
1776131999419,18536975640213,-1.4437037,-4.086902,7.678205,-0.8063421,0.03176499,0.073303826,TREMOR,635380530830
1776131999436,18536995690262,-1.4987702,-5.2744265,8.087613,-0.9651671,-0.10629055,0.07086037,TREMOR,635380530830
1776131999459,18537015770829,-1.388637,-8.078036,7.615956,-0.18692477,-0.267559,0.0,TREMOR,635380530830
1776131999472,18537035881913,-1.0630256,-7.8888946,8.058883,1.5039502,-0.20158553,-0.10629055,TREMOR,635380530830
1776131999493,18537055931961,-0.94570965,-5.422867,8.746018,2.7501154,-0.096516706,-0.061086524,TREMOR,635380530830
1776131999511,18537076012528,-1.1420342,-3.3327289,8.884883,2.869845,0.040317107,-0.0036651916,TREMOR,635380530830
1776131999545,18537096062577,-0.9959879,-1.4413095,8.6574335,1.6542231,0.07452556,0.0842994,TREMOR,635380530830
1776131999555,18537116082108,-1.1899183,0.031124622,7.73806,-1.1850786,0.16126843,0.1563815,TREMOR,635380530830
1776131999570,18537136132157,-1.7669208,-3.6750996,7.726089,-4.119675,0.16615535,0.16126843,TREMOR,635380530830
1776131999590,18537156182205,-1.4269443,-6.6367273,7.8865004,-5.338962,0.065973446,0.14049901,TREMOR,635380530830
1776131999611,18537176232254,-1.3311762,-8.9279785,8.212111,-4.2650614,0.064751714,0.06841691,TREMOR,635380530830
1776131999640,18537196221268,-0.78050977,-9.375694,6.6271505,-1.3377949,-0.037873644,0.019547688,TREMOR,635380530830
1776131999651,18537216271317,-0.8451532,-6.931214,6.31351,1.6420058,0.13439035,-0.08307768,TREMOR,635380530830
1776131999676,18537236290848,-1.4460979,-6.217742,7.2233067,3.1312952,0.09773844,-0.032986723,TREMOR,635380530830
1776131999693,18537256310379,-1.484405,-4.8027687,7.955932,3.467271,-0.014660766,-0.18448131,TREMOR,635380530830
1776131999711,18537276360428,-1.2593501,-2.099715,8.133103,2.180789,-0.080634214,-0.16615535,TREMOR,635380530830
1776131999733,18537296410477,-2.0039468,-2.9640217,7.098808,-0.45081854,-0.08307768,-0.032986723,TREMOR,635380530830
1776131999751,18537316430008,-1.8363527,-5.5737014,7.457938,-2.493552,-0.23701571,0.02076942,TREMOR,635380530830
1776131999770,18537336449539,-1.3096284,-9.220071,7.9966335,-2.5546384,-0.32620203,-0.05375614,TREMOR,635380530830
1776131999790,18537356438553,-0.91697925,-10.524911,8.010999,-0.41172317,-0.22479841,-0.0061086523,TREMOR,635380530830
1776131999811,18537376488602,-0.5722142,-7.953538,7.9128366,0.9981538,-0.119729586,-0.080634214,TREMOR,635380530830
1776131999841,18537396508133,-0.81881696,-5.5760956,7.615956,2.8185322,-0.040317107,0.05009095,TREMOR,635380530830
1776131999851,18537416527664,-1.0055647,-4.39336,8.329428,3.1923819,0.030543262,0.073303826,TREMOR,635380530830
1776131999882,18537436547196,-0.94331545,-2.9712043,8.781932,2.4715607,0.012217305,0.10873401,TREMOR,635380530830
1776131999890,18537456566727,-1.1444284,-1.412579,7.821857,0.2284636,0.02321288,0.267559,TREMOR,635380530830
1776131999923,18537476586258,-1.6879122,-2.6072857,7.417237,-2.557082,0.04886922,0.3555236,TREMOR,635380530830
1776131999930,18537496575272,-1.7956513,-5.1116204,7.2209125,-4.3676863,-0.058643065,0.3408628,TREMOR,635380530830
1776131999965,18537516625321,-1.5131354,-7.3669586,7.989451,-4.5313983,-0.04642576,0.2602286,TREMOR,635380530830
1776131999974,18537536644852,-1.1180922,-7.797915,7.953538,-3.2424726,-0.02076942,0.23335053,TREMOR,635380530830
1776131999993,18537556664383,-1.0319009,-6.88333,7.062895,-1.2925909,0.021991149,0.12461651,TREMOR,635380530830
1776132000023,18537576683914,-0.92655605,-6.7612257,6.517017,0.22968534,-0.009773844,-0.0061086523,TREMOR,635380530830
1776132000044,18537596703446,-1.1252748,-7.8170686,6.3566055,1.3084733,-0.13072516,-0.15271631,TREMOR,635380530830
1776132000067,18537616722977,-0.8499416,-8.123527,7.311892,2.4898868,-0.23090707,-0.31031954,TREMOR,635380530830
1776132000071,18537636742508,-0.6967127,-7.33344,8.101978,3.612657,-0.22479841,-0.40194935,TREMOR,635380530830
1776132000091,18537656762039,-0.82121116,-5.1020436,8.736442,4.1013494,-0.13194689,-0.3286455,TREMOR,635380530830
1776132000111,18537676781571,-1.1947067,-2.873042,8.453926,3.612657,-0.021991149,-0.22968534,TREMOR,635380530830
1776132000136,18537696801102,-1.0749966,-2.0614076,8.396465,2.1734586,0.012217305,-0.036651913,TREMOR,635380530830
1776132000159,18537716851151,-1.0366893,-0.8738836,8.183381,-0.20525073,0.010995574,0.07086037,TREMOR,635380530830
1776132000170,18537736870682,-1.2617443,-2.3654714,7.66384,-3.1251867,0.062308256,0.14172074,TREMOR,635380530830
1776132000191,18537756920731,-1.2880806,-5.657499,7.285556,-5.244889,0.064751714,0.20525073,TREMOR,635380530830
1776132000212,18537776970780,-1.0630256,-7.4723034,7.668628,-5.407379,0.087964594,0.13683382,TREMOR,635380530830
1776132000241,18537796990311,-1.0366893,-7.417237,7.2783732,-4.6108108,0.16737708,0.15393804,TREMOR,635380530830
1776132000254,18537817070877,-1.3311762,-7.747637,5.767632,-3.948633,0.21380283,0.25411993,TREMOR,635380530830
1776132000272,18537837090409,-1.2210429,-8.63828,5.695806,-2.7354546,0.16615535,0.13194689,TREMOR,635380530830
1776132000291,18537857109940,-1.091756,-8.269572,5.365406,-1.2986995,0.1441642,-0.036651913,TREMOR,635380530830
1776132000318,18537877159989,-1.2904748,-7.8529816,3.9576154,-0.5656612,0.09773844,-0.07574729,TREMOR,635380530830
1776132000336,18537897179520,-1.6567876,-9.131485,3.4883518,-0.073303826,-0.07086037,-0.22357668,TREMOR,635380530830
1776132000353,18537917260086,-0.6464345,-10.096349,6.4308257,1.4037683,-0.25778514,-0.4129449,TREMOR,635380530830
1776132000372,18537937310135,-0.33039984,-8.66701,7.735666,3.2058208,-0.096516706,-0.41416663,TREMOR,635380530830
1776132000393,18537957360184,-1.1109096,-7.455544,7.2185183,3.9901717,0.04153884,-0.21380283,TREMOR,635380530830
1776132000430,18537977379715,-1.1563994,-6.945579,7.041347,3.5051448,0.05009095,-0.09896017,TREMOR,635380530830
1776132000436,18537997429764,-0.79487497,-6.4284315,7.620744,2.5595255,0.080634214,-0.040317107,TREMOR,635380530830
1776132000453,18538017479813,-0.830788,-6.7229185,7.819463,2.1612413,0.14905111,-0.007330383,TREMOR,635380530830
1776132000474,18538037529862,-0.8523358,-5.717354,8.013393,2.3408356,0.22235495,0.008552114,TREMOR,635380530830
1776132000494,18538057640946,-0.9983821,-5.781997,8.523358,2.624277,0.267559,0.062308256,TREMOR,635380530830
1776132000520,18538077690995,-1.0271125,-5.959168,8.288726,3.154508,0.3042109,0.0720821,TREMOR,635380530830
1776132000536,18538097771561,-1.0366893,-4.027047,8.329428,3.5833356,0.30787608,0.095294975,TREMOR,635380530830
1776132000554,18538117852127,-1.2785037,-1.9129672,8.228871,3.222925,0.28710666,0.080634214,TREMOR,635380530830
1776132000574,18538137932694,-1.316811,-1.0965444,8.171411,2.0244074,0.23701571,0.089186326,TREMOR,635380530830
1776132000592,18538157982743,-1.5035586,1.0007763,7.4268136,0.17837265,0.1001819,0.04520403,TREMOR,635380530830
1776132000620,18538178002274,-1.8435353,1.5035586,7.371747,-2.6841419,0.05009095,-0.036651913,TREMOR,635380530830
1776132000647,18538198021805,-1.970428,-2.3894134,7.728483,-5.2473326,-0.13683382,-0.096516706,TREMOR,635380530830
1776132000653,18538218041336,-1.6089035,-5.8562174,8.066066,-6.478837,-0.21991149,-0.047647487,TREMOR,635380530830
1776132000671,18538238060868,-1.5394717,-9.583989,8.013393,-5.531996,-0.16737708,-0.103847094,TREMOR,635380530830
1776132000692,18538258110916,-0.9792285,-10.668563,6.931214,-2.5094345,-0.10262536,-0.21502456,TREMOR,635380530830
1776132000725,18538278191483,-0.45968673,-9.947908,6.694188,1.5308284,0.040317107,-0.2565634,TREMOR,635380530830
1776132000732,18538298211014,-0.90500826,-7.4603324,7.752425,4.646241,0.119729586,-0.34697145,TREMOR,635380530830
1776132000766,18538318261063,-1.2042835,-4.522647,8.868123,5.502674,0.09896017,-0.23090707,TREMOR,635380530830
1776132000772,18538338311112,-1.2138603,-3.0095115,8.62152,4.312709,0.064751714,-0.11484267,TREMOR,635380530830
1776132000793,18538358330643,-1.0702082,-2.896984,7.8505874,2.2247713,0.05497787,0.052534413,TREMOR,635380530830
1776132000821,18538378350174,-1.3431472,-3.70383,7.750031,0.70371675,0.07696902,0.09162979,TREMOR,635380530830
1776132000832,18538398400223,-1.4508862,-3.13401,8.7532015,-0.032986723,0.02321288,0.032986723,TREMOR,635380530830
1776132000855,18538418419754,-1.352724,-2.8538885,8.892065,-0.6768387,0.013439035,0.096516706,TREMOR,635380530830
1776132000872,18538438469803,-1.3479356,-2.777274,8.228871,-1.3793337,0.02076942,0.17959438,TREMOR,635380530830
1776132000893,18538458519852,-1.520318,-3.0071173,8.001422,-2.3151793,0.0012217305,0.1966986,TREMOR,635380530830
1776132000925,18538478539383,-1.3982137,-3.7780502,8.214506,-3.4122932,-0.07452556,0.22479841,TREMOR,635380530830
1776132000933,18538498558914,-1.5873557,-5.6910176,7.764396,-4.2223005,-0.118507855,0.2284636,TREMOR,635380530830
1776132000966,18538518578446,-1.4820108,-7.1945763,7.3669586,-3.9376373,-0.19303341,0.17592919,TREMOR,635380530830
1776132000973,18538538597977,-0.89543146,-7.513005,7.21373,-2.438574,-0.21991149,0.04153884,TREMOR,635380530830
1776132000993,18538558617508,-0.90740246,-8.169016,7.3047094,-0.42760566,-0.16615535,-0.10873401,TREMOR,635380530830
1776132001026,18538578637039,-0.6775591,-8.161834,7.651869,1.7983873,-0.1685988,-0.23945917,TREMOR,635380530830
1776132001033,18538598656571,-0.5746084,-6.9120603,8.128315,3.5198054,-0.10751228,-0.27855456,TREMOR,635380530830
1776132001058,18538618676102,-0.80924016,-5.4300494,8.432379,4.119675,-0.09162979,-0.22479841,TREMOR,635380530830
1776132001072,18538638726151,-0.90261406,-3.4213142,8.264784,3.4293976,-0.007330383,-0.1600467,TREMOR,635380530830
1776132001094,18538658745682,-1.1348516,-2.621651,8.394072,1.8851302,0.02687807,0.007330383,TREMOR,635380530830
1776132001133,18538678765213,-1.0127473,-2.0207062,8.264784,-0.25289822,0.037873644,0.10262536,TREMOR,635380530830
1776132001136,18538698815262,-1.3383588,-2.944868,7.9966335,-2.7391198,0.11484267,0.15760323,TREMOR,635380530830
1776132001152,18538718834793,-1.3982137,-5.6000376,7.893683,-4.2723913,0.112399206,0.19792034,TREMOR,635380530830
1776132001177,18538738854325,-1.1540052,-7.5441294,7.9032598,-4.166101,0.1160644,0.1685988,TREMOR,635380530830
1776132001195,18538758873856,-0.92895025,-8.269572,7.48188,-2.77455,0.119729586,0.14049901,TREMOR,635380530830
1776132001223,18538778923905,-0.90500826,-7.8529816,6.7085533,-0.6609562,0.14905111,0.047647487,TREMOR,635380530830
1776132001239,18538798943436,-1.0319009,-6.95755,6.7348895,1.3732251,0.16737708,-0.065973446,TREMOR,635380530830
1776132001255,18538818932450,-1.2378023,-5.8107276,7.2089415,2.5130997,0.111177474,-0.13561209,TREMOR,635380530830
1776132001272,18538838982498,-1.4030021,-4.8458643,7.8170686,2.6218336,0.04153884,-0.18203785,TREMOR,635380530830
1776132001293,18538859002030,-1.4293385,-4.3119574,8.008605,1.749518,-0.004886922,-0.18692477,TREMOR,635380530830
1776132001332,18538879021561,-1.4915876,-4.8578353,8.013393,0.53023106,-0.02565634,-0.1001819,TREMOR,635380530830
1776132001353,18538899041092,-1.3742718,-5.4324436,7.773973,-0.31642818,-0.039095376,-0.056199603,TREMOR,635380530830
1776132001356,18538919091141,-1.2282255,-6.126762,7.630321,-0.79045963,-0.02565634,0.004886922,TREMOR,635380530830
1776132001373,18538939141190,-1.0366893,-5.6910176,7.7093296,-0.96883225,0.007330383,0.008552114,TREMOR,635380530830
1776132001395,18538959160721,-1.1061212,-5.0014873,7.309498,-1.7311921,0.103847094,0.0720821,TREMOR,635380530830
1776132001420,18538979180252,-1.4676456,-6.457162,6.777985,-2.8539624,0.118507855,0.09896017,TREMOR,635380530830
1776132001437,18538999230301,-1.1707647,-7.6015906,6.9503675,-3.032335,0.06352998,-0.0012217305,TREMOR,635380530830
1776132001460,18539019249832,-1.0989386,-7.603985,7.225701,-2.1294763,0.09407325,-0.10140363,TREMOR,635380530830
1776132001474,18539039269364,-1.0319009,-8.437167,7.1251445,-0.43371433,0.029321533,-0.16493362,TREMOR,635380530830
1776132001496,18539059349930,-0.5554548,-9.241618,6.9599442,2.0024164,0.007330383,-0.24801129,TREMOR,635380530830
1776132001526,18539079430497,-0.62728083,-7.3765354,7.07726,4.180762,0.096516706,-0.20158553,TREMOR,635380530830
1776132001536,18539099511063,-1.0079589,-4.900931,7.7069354,4.891809,0.103847094,-0.17715092,TREMOR,635380530830
1776132001555,18539119561112,-1.3192052,-3.8067808,8.070854,4.079358,0.112399206,-0.12950343,TREMOR,635380530830
1776132001575,18539139641678,-1.3623008,-3.3039982,8.226477,2.257758,0.1001819,-0.007330383,TREMOR,635380530830
1776132001608,18539159722245,-1.5298948,-3.787627,8.010999,0.26633725,0.10995574,0.096516706,TREMOR,635380530830
1776132001616,18539179802811,-1.6543933,-3.4931402,7.8625584,-0.95172805,0.14538592,0.061086524,TREMOR,635380530830
1776132001641,18539199883377,-1.412579,-4.1635165,8.42759,-1.7201965,0.12461651,0.087964594,TREMOR,635380530830
1776132001656,18539219963944,-1.271321,-5.3582234,8.209718,-2.107485,0.1282817,0.112399206,TREMOR,635380530830
1776132001677,18539240075028,-1.2976574,-5.755661,7.6853876,-1.9242256,0.10995574,0.09773844,TREMOR,635380530830
1776132001696,18539260125077,-1.2090719,-5.3366756,7.3645644,-1.4453071,0.07574729,0.08552113,TREMOR,635380530830
1776132001724,18539280205643,-1.553837,-5.734113,7.201759,-1.2082914,0.019547688,0.087964594,TREMOR,635380530830
1776132001734,18539300225174,-1.4628572,-6.5265937,7.2089415,-1.0189233,-0.09162979,0.037873644,TREMOR,635380530830
1776132001767,18539320244705,-1.2569559,-7.2089415,7.5584946,-0.26633725,-0.17470746,-0.111177474,TREMOR,635380530830
1776132001775,18539340294754,-0.93852705,-8.255207,8.686164,1.2962561,-0.172264,-0.2602286,TREMOR,635380530830
1776132001795,18539360314286,-0.81881696,-6.823475,8.535329,2.8637362,-0.057421334,-0.24556783,TREMOR,635380530830
1776132001820,18539380364334,-1.340753,-4.560954,7.797915,3.6700783,0.0061086523,-0.12217305,TREMOR,635380530830
1776132001842,18539400383866,-1.5011644,-3.4620156,8.104373,3.167947,0.02076942,-0.037873644,TREMOR,635380530830
1776132001854,18539420433914,-1.3192052,-3.074155,8.279149,1.7910569,0.010995574,0.007330383,TREMOR,635380530830
1776132001875,18539440453446,-1.2042835,-2.9640217,8.180987,0.42638394,0.0036651916,0.043982297,TREMOR,635380530830
1776132001896,18539460472977,-1.1659763,-1.745373,7.8146744,-1.210735,0.0012217305,0.11728613,TREMOR,635380530830
1776132001921,18539480492508,-1.5179238,-3.2513258,7.3310456,-3.4562755,0.021991149,0.15882497,TREMOR,635380530830
1776132001934,18539500481522,-1.4173675,-5.719748,7.180211,-4.773301,-0.04642576,0.0842994,TREMOR,635380530830
1776132001960,18539520531571,-1.2593501,-7.323863,7.297527,-4.6706758,-0.065973446,0.034208454,TREMOR,635380530830
1776132001974,18539540551102,-1.3814543,-8.50181,7.7907324,-3.6053267,-0.04642576,-0.040317107,TREMOR,635380530830
1776132001997,18539560540116,-1.0462662,-9.287108,6.531382,-1.5833627,-0.18448131,-0.08552113,TREMOR,635380530830
1776132002021,18539580559647,-0.38307226,-8.863335,7.3190746,1.0433578,-0.12705997,-0.18448131,TREMOR,635380530830
1776132002037,18539600609696,-0.50278234,-8.082825,7.5704656,3.040887,-0.03176499,-0.12095132,TREMOR,635380530830
1776132002055,18539620629227,-0.7661445,-6.2943563,7.4986396,4.097684,-0.007330383,-0.04642576,TREMOR,635380530830
1776132002074,18539640648758,-1.1180922,-4.4915223,7.654263,3.9339721,0.0061086523,-0.02076942,TREMOR,635380530830
1776132002100,18539660668289,-1.2761095,-3.7253778,7.716512,2.5631905,-0.02321288,0.07452556,TREMOR,635380530830
1776132002120,18539680687821,-1.3359646,-3.9360676,7.824251,0.92485,-0.02687807,0.15027285,TREMOR,635380530830
1776132002137,18539700737870,-1.3575124,-4.2640734,8.310274,-0.27855456,-0.021991149,0.14538592,TREMOR,635380530830
1776132002159,18539720757401,-1.3383588,-4.4340615,8.523358,-1.0726794,0.0012217305,0.18203785,TREMOR,635380530830
1776132002174,18539740776932,-1.3455414,-5.389348,8.346188,-1.4025466,0.034208454,0.14905111,TREMOR,635380530830
1776132002200,18539760796463,-1.1803415,-5.614403,8.063671,-1.1129965,0.04153884,0.10751228,TREMOR,635380530830
1776132002220,18539780815995,-1.2162545,-5.511452,8.176199,-0.47158796,0.0842994,0.064751714,TREMOR,635380530830
1776132002237,18539800835526,-1.2042835,-5.1882353,8.264784,0.034208454,0.08674286,0.04886922,TREMOR,635380530830
1776132002255,18539820916092,-1.055843,-4.8985367,8.520964,0.25778514,0.13683382,0.002443461,TREMOR,635380530830
1776132002275,18539840966141,-0.93134445,-4.795586,8.497022,0.15882497,0.16249016,0.009773844,TREMOR,635380530830
1776132002297,18539860985672,-1.0749966,-4.6279917,8.365341,0.040317107,0.20158553,-0.02321288,TREMOR,635380530830
1776132002330,18539881005204,-1.1228806,-5.351041,8.286332,0.0036651916,0.2003638,-0.05497787,TREMOR,635380530830
1776132002335,18539901024735,-1.1133038,-5.686229,8.343793,0.32620203,0.17592919,-0.10262536,TREMOR,635380530830
1776132002356,18539921044266,-1.1611878,-5.8466406,8.772355,0.66950834,0.16249016,-0.14049901,TREMOR,635380530830
1776132002375,18539941063797,-1.1085154,-5.729325,8.554482,1.6664404,0.16249016,-0.16737708,TREMOR,635380530830
1776132002403,18539961083329,-1.448492,-4.489128,7.9104424,2.6621506,0.10262536,-0.10262536,TREMOR,635380530830
1776132002420,18539981133377,-1.7357962,-3.560178,7.795521,2.5851817,0.032986723,-0.08307768,TREMOR,635380530830
1776132002437,18540001122391,-1.472434,-3.3806129,8.090008,1.9816469,-0.07574729,-0.09040806,TREMOR,635380530830
1776132002460,18540021172440,-1.5298948,-2.918532,8.267179,1.033584,-0.087964594,-0.029321533,TREMOR,635380530830
1776132002475,18540041191971,-1.5131354,0.0047884034,8.058883,-0.90041536,-0.1160644,0.062308256,TREMOR,635380530830
1776132002496,18540061211502,-1.8387469,-2.1308396,7.479486,-4.142888,0.02076942,0.13439035,TREMOR,635380530830
1776132002531,18540081231034,-1.8267759,-6.1746464,6.9958572,-6.4898324,-0.012217305,0.2125811,TREMOR,635380530830
1776132002536,18540101281082,-1.4939818,-8.09719,7.651869,-6.5875707,0.04153884,0.15393804,TREMOR,635380530830
1776132002556,18540121361649,-1.5705963,-9.579201,8.394072,-4.9883256,0.13927728,0.119729586,TREMOR,635380530830
1776132002576,18540141411698,-0.9816227,-8.916007,6.1866174,-0.14172074,0.1282817,0.039095376,TREMOR,635380530830
1776132002609,18540161461747,-0.9816227,-7.3765354,5.9041014,2.702468,0.14172074,-0.036651913,TREMOR,635380530830
1776132002616,18540181511795,-1.2354081,-6.7109475,6.327875,4.076915,0.04153884,-0.061086524,TREMOR,635380530830
1776132002643,18540201531327,-1.2473791,-5.140351,7.1754227,4.3322563,-0.07086037,-0.22113322,TREMOR,635380530830
1776132002658,18540221642411,-1.2473791,-3.9264908,7.9822683,3.3927455,-0.13194689,-0.20647246,TREMOR,635380530830
1776132002683,18540241692459,-1.6328455,-3.5242648,7.290344,1.4074335,-0.16493362,-0.02321288,TREMOR,635380530830
1776132002714,18540261742508,-1.8004397,-5.145139,7.204153,-0.4728097,-0.20769419,0.02687807,TREMOR,635380530830
1776132002717,18540281823075,-1.3910311,-6.133945,8.319851,-1.486846,-0.22968534,0.06963864,TREMOR,635380530830
1776132002738,18540301873123,-1.3934253,-6.1076083,8.738836,-1.500285,-0.10629055,0.057421334,TREMOR,635380530830
1776132002758,18540321923172,-1.2258313,-6.447585,8.65025,-0.95417154,-0.019547688,0.096516706,TREMOR,635380530830
1776132002776,18540341973221,-1.0654198,-6.3087215,8.468291,-0.53023106,0.015882496,0.10140363,TREMOR,635380530830
1776132002814,18540362023270,-0.9648633,-5.7029886,8.1642275,0.37507126,0.12339478,0.073303826,TREMOR,635380530830
1776132002824,18540382042801,-0.9792285,-5.1786585,8.128315,0.9639453,0.15760323,0.062308256,TREMOR,635380530830
1776132002840,18540402062332,-1.1228806,-5.245696,7.9966335,1.1349876,0.15515977,0.05497787,TREMOR,635380530830
1776132002855,18540422051346,-1.3910311,-4.8482585,6.9120603,0.9126327,0.04886922,0.05009095,TREMOR,635380530830
1776132002876,18540442070877,-1.6543933,-4.414908,6.9886746,0.3921755,-0.021991149,-0.047647487,TREMOR,635380530830
1776132002916,18540462120926,-1.7429788,-4.3598413,8.470686,-0.16126843,-0.05009095,-0.13805555,TREMOR,635380530830
1776132002924,18540482140457,-1.5011644,-4.5082817,8.731653,-0.44959682,-0.047647487,-0.13561209,TREMOR,635380530830
1776132002936,18540502159989,-1.3000516,-4.6351743,8.3821,-0.68416905,-0.018325957,-0.10262536,TREMOR,635380530830
1776132002956,18540522179520,-1.151611,-5.8562174,7.9248075,-0.7892379,0.0061086523,-0.12705997,TREMOR,635380530830
1776132002976,18540542199051,-0.79487497,-6.081272,7.8745294,-0.3885103,0.0061086523,-0.16493362,TREMOR,635380530830
1776132003003,18540562218582,-0.7541735,-5.5880666,8.12592,0.12950343,0.04153884,-0.14538592,TREMOR,635380530830
1776132003026,18540582268631,-0.9768343,-5.401319,8.180987,0.30665436,0.057421334,-0.12950343,TREMOR,635380530830
1776132003036,18540602288163,-1.1372458,-5.533,8.039729,0.22113322,0.056199603,-0.061086524,TREMOR,635380530830
1776132003056,18540622338211,-1.364695,-5.628768,7.9487495,0.12461651,0.05497787,-0.017104227,TREMOR,635380530830
1776132003076,18540642357743,-1.5227122,-5.8945246,7.97748,0.22113322,0.05009095,-0.029321533,TREMOR,635380530830
1776132003106,18540662377274,-1.5849615,-5.853823,8.109161,0.52290064,0.06352998,-0.02321288,TREMOR,635380530830
1776132003121,18540682396805,-1.5227122,-5.4922986,8.020576,0.752586,0.09285152,-0.019547688,TREMOR,635380530830
1776132003137,18540702416336,-1.532289,-6.1507044,8.480263,0.98471475,0.13194689,-0.036651913,TREMOR,635380530830
1776132003156,18540722405350,-1.3670892,-5.2002063,8.50181,1.4208726,0.16615535,-0.062308256,TREMOR,635380530830
1776132003176,18540742424881,-1.4437037,-4.074931,8.559271,1.4220943,0.20647246,-0.040317107,TREMOR,635380530830
1776132003208,18540762413895,-1.3958195,-3.7062242,8.355764,0.93462384,0.21624629,-0.02076942,TREMOR,635380530830
1776132003218,18540782433426,-1.2880806,-3.8522706,8.317456,0.3885103,0.20158553,-0.021991149,TREMOR,635380530830
1776132003241,18540802483475,-1.2952632,-3.6296098,7.8865004,-0.10873401,0.15271631,-0.007330383,TREMOR,635380530830
1776132003258,18540822533524,-1.5945383,-3.8283286,7.4962454,-0.59620446,0.04520403,0.0061086523,TREMOR,635380530830
1776132003278,18540842553055,-1.3383588,-5.5401826,8.334216,-0.82711154,-0.06963864,0.013439035,TREMOR,635380530830
1776132003317,18540862542069,-1.1587936,-5.595249,8.528147,-0.27855456,-0.118507855,0.02076942,TREMOR,635380530830
1776132003320,18540882592118,-1.3575124,-4.687847,8.513782,0.36041048,-0.13072516,0.036651913,TREMOR,635380530830
1776132003336,18540902642166,-1.400608,-4.7261543,8.070854,0.4361578,-0.14172074,0.059864793,TREMOR,635380530830
1776132003361,18540922661698,-1.3479356,-4.7620673,8.844181,0.3885103,-0.09773844,0.06719518,TREMOR,635380530830
1776132003378,18540942681229,-1.484405,-4.4843397,8.913613,0.35796702,-0.036651913,0.10140363,TREMOR,635380530830
1776132003404,18540962700760,-1.6519991,-4.06296,8.516175,0.24312437,0.002443461,0.11362094,TREMOR,635380530830
1776132003423,18540982720291,-1.8100165,-4.0054994,8.805874,-0.03176499,0.036651913,0.103847094,TREMOR,635380530830
1776132003437,18541002739823,-1.6017209,-3.8953662,8.868123,-0.18570304,0.05375614,0.07452556,TREMOR,635380530830
1776132003461,18541022789872,-1.4173675,-4.036624,8.805874,-0.27488935,0.09407325,0.061086524,TREMOR,635380530830
1776132003477,18541042778885,-1.4173675,-4.1252093,8.643068,-0.24556783,0.13805555,0.035430185,TREMOR,635380530830
1776132003505,18541062828934,-1.388637,-4.211401,8.746018,-0.14905111,0.13439035,0.017104227,TREMOR,635380530830
1776132003521,18541082848465,-1.745373,-4.5537715,7.8649526,0.09162979,0.04153884,-0.0012217305,TREMOR,635380530830
1776132003538,18541102867997,-1.6903064,-4.43885,6.727707,0.4361578,-0.19303341,-0.057421334,TREMOR,635380530830
1776132003562,18541122918045,-1.3958195,-5.1547165,8.746018,0.9798279,-0.2406809,-0.095294975,TREMOR,635380530830
1776132003578,18541142937577,-1.376666,-3.976769,9.923966,1.6249015,-0.2724459,-0.043982297,TREMOR,635380530830
1776132003604,18541162987625,-1.1683705,-3.107674,9.14585,1.690875,-0.25045475,0.034208454,TREMOR,635380530830
1776132003627,18541183007157,-0.93852705,-1.8579005,8.111555,0.54367006,-0.20769419,0.09285152,TREMOR,635380530830
1776132003639,18541203026688,-1.1204864,-2.183512,8.295909,-1.8008307,-0.06719518,0.080634214,TREMOR,635380530830
1776132003660,18541223076737,-0.9648633,-4.3861775,8.755595,-3.8240163,0.007330383,0.087964594,TREMOR,635380530830
1776132003679,18541243096268,-1.2737153,-4.333505,8.762778,-4.543616,0.1563815,-0.013439035,TREMOR,635380530830
1776132003712,18541263146317,-1.1923125,-7.7308774,9.02614,-4.107458,0.20525073,0.03176499,TREMOR,635380530830
1776132003718,18541283196366,-0.8451532,-8.750807,7.548918,-1.8594738,0.25045475,-0.036651913,TREMOR,635380530830
1776132003739,18541303276932,-1.1659763,-6.38773,6.105214,0.8894198,0.2406809,-0.035430185,TREMOR,635380530830
1776132003759,18541323326981,-1.6903064,-5.1571107,5.604826,2.4764478,0.015882496,-0.02687807,TREMOR,635380530830
1776132003787,18541343407547,-1.946486,-5.4563856,7.6494746,2.71102,-0.17715092,-0.13927728,TREMOR,635380530830
1776132003809,18541363427079,-1.5490485,-4.367024,9.291897,1.9853121,-0.267559,-0.05009095,TREMOR,635380530830
1776132003820,18541383507645,-1.5729905,-2.9376855,8.12592,0.07941248,-0.21624629,0.103847094,TREMOR,635380530830
1776132003844,18541403557694,-1.7429788,-4.596867,7.091625,-1.9437732,-0.1001819,0.1600467,TREMOR,635380530830
1776132003857,18541423577225,-1.4867992,-6.3829417,7.7691846,-2.8686233,-0.058643065,0.14782938,TREMOR,635380530830
1776132003878,18541443596756,-1.460463,-7.237672,8.693346,-2.7501154,0.057421334,0.1160644,TREMOR,635380530830
1776132003911,18541463646805,-1.3311762,-9.607931,7.9583263,-1.4709635,0.064751714,0.13072516,TREMOR,635380530830
1776132003919,18541483696854,-0.7038953,-8.336611,7.335834,1.1337659,0.1441642,0.021991149,TREMOR,635380530830
1776132003939,18541503716385,-0.9600749,-5.281609,7.7667904,3.2436945,0.25534168,-0.062308256,TREMOR,635380530830
1776132003957,18541523766434,-1.1923125,-4.417302,8.26239,3.789808,0.25411993,0.058643065,TREMOR,635380530830
1776132003978,18541543785965,-1.2042835,-3.5553896,8.525752,3.368311,0.21868975,-0.0061086523,TREMOR,635380530830
1776132004010,18541563774979,-1.2234371,-2.8275523,8.331821,1.9669861,0.19547687,0.039095376,TREMOR,635380530830
1776132004018,18541583794510,-1.9393034,-0.6679823,6.7085533,-0.1600467,0.15149458,0.09896017,TREMOR,635380530830
1776132004038,18541603844559,-2.1523874,-1.1707647,7.536947,-2.7904325,0.09407325,0.03176499,TREMOR,635380530830
1776132004058,18541623864090,-1.9776106,-5.717354,8.286332,-4.7977357,-0.056199603,0.080634214,TREMOR,635380530830
1776132004094,18541643914139,-2.0207062,-9.018958,8.37013,-4.5069637,-0.16737708,0.09040806,TREMOR,635380530830
1776132004098,18541663903153,-1.1947067,-9.911995,6.4068837,-1.3316863,-0.24312437,-0.112399206,TREMOR,635380530830
1776132004126,18541683922684,-0.9959879,-7.240066,6.5505357,2.1526892,-0.058643065,-0.27366763,TREMOR,635380530830
1776132004155,18541703942215,-1.4173675,-5.614403,8.111555,4.2271876,0.0,-0.12217305,TREMOR,635380530830
1776132004166,18541723961747,-1.934515,-3.6822822,8.870518,4.6572366,0.018325957,-0.13927728,TREMOR,635380530830
1776132004179,18541744011795,-1.6831238,-2.3439236,8.966286,3.2888985,-0.05497787,-0.111177474,TREMOR,635380530830
1776132004204,18541764061844,-1.4221559,-3.3997664,8.279149,1.1435398,-0.10873401,-0.012217305,TREMOR,635380530830
1776132004221,18541784081375,-1.5035586,-4.711789,8.540117,0.064751714,-0.004886922,0.018325957,TREMOR,635380530830
1776132004242,18541804100907,-1.3383588,-4.570531,9.28232,0.29077184,0.042760566,-0.014660766,TREMOR,635380530830
1776132004257,18541824150955,-1.3239936,-3.6104562,9.368511,0.88453287,0.10995574,0.029321533,TREMOR,635380530830
1776132004279,18541844139969,-1.3335704,-3.4524388,8.947132,1.0848967,0.14782938,0.10140363,TREMOR,635380530830
1776132004303,18541864190018,-1.2904748,-3.028665,8.781932,0.9896017,0.12950343,0.12339478,TREMOR,635380530830
1776132004321,18541884240067,-1.3311762,-2.8443117,8.652645,0.752586,0.07941248,0.119729586,TREMOR,635380530830
1776132004338,18541904259598,-1.4820108,-2.6312277,8.678981,0.42760566,0.05009095,0.12217305,TREMOR,635380530830
1776132004358,18541924309647,-1.6639702,-2.4516625,9.040505,0.204029,0.002443461,0.089186326,TREMOR,635380530830
1776132004378,18541944329178,-1.7286136,-2.719813,9.174581,0.06963864,-0.012217305,0.062308256,TREMOR,635380530830
1776132004411,18541964287674,-1.8746599,-2.5067291,8.537724,0.09896017,-0.042760566,0.010995574,TREMOR,635380530830
1776132004422,18541984307205,-1.6112977,-2.4875755,9.188946,0.11362094,-0.07819075,-0.02565634,TREMOR,635380530830
1776132004443,18542004326737,-1.532289,-2.837129,9.428367,-0.002443461,-0.05497787,-0.043982297,TREMOR,635380530830
1776132004458,18542024376786,-1.412579,-2.7820623,9.421184,0.047647487,-0.0036651916,-0.061086524,TREMOR,635380530830
1776132004480,18542044426834,-1.2114661,-2.3822308,9.308656,0.10262536,0.035430185,-0.05131268,TREMOR,635380530830
1776132004510,18542064385330,-1.3144168,-2.3918076,9.136273,0.028099801,0.08307768,-0.059864793,TREMOR,635380530830
1776132004520,18542084435379,-1.3623008,-2.6886885,9.050082,-0.20891592,0.09407325,-0.021991149,TREMOR,635380530830
1776132004544,18542104424393,-1.3934253,-3.5362358,9.627085,-0.34208453,0.096516706,-0.032986723,TREMOR,635380530830
1776132004558,18542124443924,-1.5442601,-3.4524388,9.828198,0.04886922,0.14294247,-0.039095376,TREMOR,635380530830
1776132004580,18542144463455,-1.6304513,-2.303222,8.226477,0.39461896,0.028099801,-0.028099801,TREMOR,635380530830
1776132004604,18542164513504,-1.6543933,-2.566584,8.358158,0.3005457,0.028099801,-0.042760566,TREMOR,635380530830
1776132004621,18542184533036,-1.9129672,-2.4013844,9.021352,0.02687807,-0.014660766,-0.0061086523,TREMOR,635380530830
1776132004645,18542204583084,-1.6807296,-0.89064306,8.90643,-0.8405506,-0.09773844,0.02687807,TREMOR,635380530830
1776132004659,18542224602616,-1.4987702,-0.8475474,8.078036,-2.9981265,-0.032986723,0.1001819,TREMOR,635380530830
1776132004688,18542244652664,-1.8459295,-3.406949,7.2304893,-5.145929,-0.009773844,0.095294975,TREMOR,635380530830
1776132004704,18542264702713,-2.099715,-7.5201874,8.020576,-5.8264327,-0.056199603,0.065973446,TREMOR,635380530830
1776132004721,18542284722245,-1.8291701,-10.642226,7.955932,-4.0671406,-0.15149458,0.06352998,TREMOR,635380530830
1776132004739,18542304772293,-1.0941502,-8.643068,7.381324,-0.2773328,-0.05375614,-0.058643065,TREMOR,635380530830
1776132004760,18542324791825,-1.0941502,-5.8442464,7.2089415,2.488665,0.02565634,0.02443461,TREMOR,635380530830
1776132004799,18542344841873,-1.7884687,-4.9057193,7.687782,3.2168164,0.061086524,0.0061086523,TREMOR,635380530830
1776132004804,18542364891922,-1.6567876,-4.2042184,8.59279,2.90161,-0.036651913,-0.09040806,TREMOR,635380530830
1776132004827,18542384941971,-1.3239936,-2.0925324,8.714894,1.6627752,-0.087964594,-0.059864793,TREMOR,635380530830
1776132004841,18542405022538,-1.8291701,-1.9512744,7.6710224,-0.75747293,-0.034208454,0.058643065,TREMOR,635380530830
1776132004862,18542425103104,-1.8531121,-4.8243165,7.6494746,-2.7794368,-0.103847094,0.05375614,TREMOR,635380530830
1776132004894,18542445153153,-1.5634137,-8.145074,8.544906,-2.7867672,-0.16126843,-0.030543262,TREMOR,635380530830
1776132004900,18542465233719,-1.1755531,-9.715671,8.465898,-1.7849482,-0.17592919,-0.029321533,TREMOR,635380530830
1776132004921,18542485253250,-0.8690952,-7.6590514,8.307879,1.3854424,0.032986723,-0.06963864,TREMOR,635380530830
1776132004946,18542505272782,-1.0390835,-4.333505,8.214506,3.3988543,0.10873401,-0.009773844,TREMOR,635380530830
1776132004959,18542525292313,-1.3814543,-3.311181,8.437167,3.5161405,0.1441642,0.0720821,TREMOR,635380530830
1776132004989,18542545311844,-1.4030021,-2.4181437,8.276755,2.5717428,0.059864793,0.02076942,TREMOR,635380530830
1776132005000,18542565300858,-1.6256629,-2.2697031,8.09719,1.0665708,0.02687807,0.065973446,TREMOR,635380530830
1776132005021,18542585320389,-1.8866309,-0.51475334,8.111555,-0.7867944,-0.043982297,0.04642576,TREMOR,635380530830
1776132005043,18542605339920,-2.042254,-2.540248,7.9702973,-2.878397,-0.06352998,0.0,TREMOR,635380530830
1776132005059,18542625359452,-1.8124107,-4.865018,8.487445,-4.030489,-0.11484267,-0.035430185,TREMOR,635380530830
1776132005080,18542645378983,-1.5753847,-8.968679,8.499416,-3.2534683,-0.17592919,-0.02076942,TREMOR,635380530830
1776132005109,18542665398514,-1.103727,-7.3789296,8.001422,-0.71959925,-0.096516706,-0.12583824,TREMOR,635380530830
1776132005120,18542685448563,-0.89543146,-5.827487,7.6494746,1.5748106,-0.0720821,-0.080634214,TREMOR,635380530830
1776132005143,18542705437577,-1.2258313,-4.9105077,8.171411,2.406809,-0.04153884,-0.02565634,TREMOR,635380530830
1776132005162,18542725457108,-1.3192052,-4.012682,8.561666,2.284636,-0.06841691,-0.080634214,TREMOR,635380530830
1776132005180,18542745507157,-1.1372458,-2.1763294,8.532935,1.3072516,-0.119729586,-0.05009095,TREMOR,635380530830
1776132005204,18542765526688,-1.5993267,-2.0159178,7.9367785,-0.5766568,-0.0842994,0.009773844,TREMOR,635380530830
1776132005221,18542785546219,-1.673547,-4.3143516,8.231265,-2.3921483,-0.09896017,0.0,TREMOR,635380530830
1776132005239,18542805565750,-1.2785037,-5.901707,8.585608,-2.9321532,-0.08552113,-0.029321533,TREMOR,635380530830
1776132005259,18542825554764,-1.0989386,-8.413225,8.640674,-1.9620992,-0.03176499,0.0036651916,TREMOR,635380530830
1776132005291,18542845604813,-0.7493851,-8.0684595,8.046912,0.31031954,0.062308256,-0.04642576,TREMOR,635380530830
1776132005301,18542865563309,-0.8714894,-5.5497594,7.752425,2.42147,0.15271631,-0.06719518,TREMOR,635380530830
1776132005332,18542885582840,-1.2114661,-3.9719806,8.178593,3.0225613,0.1563815,0.028099801,TREMOR,635380530830
1776132005342,18542905571854,-1.3431472,-2.408567,8.652645,2.316401,0.13439035,0.007330383,TREMOR,635380530830
1776132005360,18542925621903,-1.5634137,-1.5035586,7.81228,0.2602286,0.0842994,0.058643065,TREMOR,635380530830
1776132005388,18542945641434,-1.7525556,-3.6032736,7.9152308,-2.0317378,0.07819075,0.11362094,TREMOR,635380530830
1776132005406,18542965660965,-1.8866309,-5.619191,8.532935,-3.0384438,0.013439035,0.017104227,TREMOR,635380530830
1776132005419,18542985649979,-1.5586253,-8.791509,8.494628,-2.1001546,-0.06719518,0.021991149,TREMOR,635380530830
1776132005444,18543005700028,-1.043872,-6.7348895,8.037335,0.42394048,0.036651913,-0.032986723,TREMOR,635380530830
1776132005459,18543025689041,-1.0414777,-4.6232033,7.9224133,2.3139575,0.095294975,0.029321533,TREMOR,635380530830
1776132005490,18543045708573,-1.400608,-3.052607,8.444349,2.3738225,0.11362094,0.09896017,TREMOR,635380530830
1776132005500,18543065697586,-1.472434,-2.0566192,7.965509,0.8210029,0.014660766,0.061086524,TREMOR,635380530830
1776132005521,18543085747635,-1.4652514,-3.8786068,7.843405,-1.1166617,-0.042760566,0.07574729,TREMOR,635380530830
1776132005543,18543105767166,-1.5921441,-5.3342814,8.288726,-2.1099286,-0.07819075,0.06963864,TREMOR,635380530830
1776132005559,18543125786698,-1.6496049,-6.9360023,8.346188,-1.7189748,-0.058643065,0.002443461,TREMOR,635380530830
1776132005588,18543145775711,-1.2904748,-5.9160724,8.259995,-0.23823744,-0.002443461,-0.042760566,TREMOR,635380530830
1776132005604,18543165825760,-1.1468226,-4.237737,7.9942393,0.79045963,0.036651913,0.056199603,TREMOR,635380530830
1776132005627,18543185875809,-1.5610195,-4.280833,7.9990277,0.46303585,0.080634214,0.09040806,TREMOR,635380530830
1776132005639,18543205864823,-1.3982137,-5.2480903,7.771579,-0.4801401,-0.02076942,0.06841691,TREMOR,635380530830
1776132005660,18543225884354,-1.2737153,-5.693412,8.243237,-0.95294976,-0.04153884,0.030543262,TREMOR,635380530830
1776132005688,18543245903885,-1.5490485,-6.921637,8.149862,-0.5534439,-0.061086524,0.02565634,TREMOR,635380530830
1776132005704,18543265953934,-1.4413095,-5.8634,8.090008,0.6169739,-0.007330383,-0.032986723,TREMOR,635380530830
1776132005721,18543286003983,-1.4867992,-5.032612,7.9942393,1.4697418,0.040317107,0.02076942,TREMOR,635380530830
1776132005743,18543306023514,-1.6400281,-4.51307,8.212111,1.6383406,0.08307768,0.05131268,TREMOR,635380530830
1776132005762,18543326073563,-1.5562311,-3.940856,8.422802,1.2217305,0.06963864,0.010995574,TREMOR,635380530830
1776132005787,18543346123612,-1.4221559,-3.3901896,8.4108305,0.4166101,0.064751714,0.010995574,TREMOR,635380530830
1776132005804,18543366173661,-1.553837,-3.9624038,8.48984,-0.35430184,0.0720821,0.030543262,TREMOR,635380530830
1776132005823,18543386254227,-1.6472107,-4.3047748,8.453926,-0.70738196,0.064751714,0.034208454,TREMOR,635380530830
1776132005842,18543406304276,-1.5562311,-4.3837833,8.240842,-0.7733554,0.056199603,0.010995574,TREMOR,635380530830
1776132005864,18543426384842,-1.5155296,-4.747702,8.061277,-0.84421575,0.04520403,0.017104227,TREMOR,635380530830
1776132005893,18543446465409,-1.6400281,-4.9895163,7.9391727,-0.7867944,0.017104227,-0.037873644,TREMOR,635380530830
1776132005903,18543466515457,-1.5179238,-5.0158525,7.73806,-0.61453044,-0.047647487,-0.07819075,TREMOR,635380530830
1776132005929,18543486626541,-1.5298948,-4.9296613,7.702147,-0.46670106,-0.10751228,-0.112399206,TREMOR,635380530830
1776132005941,18543506676590,-1.5897499,-5.391742,7.69257,-0.46181414,-0.15515977,-0.13072516,TREMOR,635380530830
1776132005961,18543526696122,-1.472434,-5.74369,7.989451,-0.40683624,-0.1881465,-0.14782938,TREMOR,635380530830
1776132005993,18543546715653,-1.3599066,-5.74369,8.209718,-0.29077184,-0.1563815,-0.15149458,TREMOR,635380530830
1776132006002,18543566735184,-1.3120226,-5.9280434,8.082825,-0.23579398,-0.119729586,-0.119729586,TREMOR,635380530830
1776132006027,18543586754715,-1.3144168,-5.729325,8.0924015,-0.13194689,-0.06719518,-0.10873401,TREMOR,635380530830
1776132006041,18543606774247,-1.2210429,-5.7365074,8.118738,-0.09407325,-0.009773844,-0.07941248,TREMOR,635380530830
1776132006062,18543626793778,-1.2114661,-5.741296,8.145074,-0.0720821,0.04642576,-0.04886922,TREMOR,635380530830
1776132006097,18543646813309,-1.2378023,-5.861006,7.9607205,-0.096516706,0.07941248,-0.021991149,TREMOR,635380530830
1776132006103,18543666802323,-1.2449849,-6.10282,7.81228,-0.040317107,0.10262536,-0.0061086523,TREMOR,635380530830
1776132006125,18543686852372,-1.2497733,-5.710171,8.121132,0.12095132,0.13194689,-0.014660766,TREMOR,635380530830
1776132006142,18543706871903,-1.1420342,-5.305551,8.468291,0.34697145,0.16493362,-0.010995574,TREMOR,635380530830
1776132006164,18543726921952,-1.1013328,-4.675876,8.221688,0.48747048,0.17348573,-0.0036651916,TREMOR,635380530830
1776132006188,18543746972000,-1.1611878,-4.9464207,8.465898,0.42638394,0.1881465,0.012217305,TREMOR,635380530830
1776132006209,18543766991532,-1.127669,-4.6782703,8.4108305,0.4654793,0.19058995,0.02076942,TREMOR,635380530830
1776132006221,18543787011063,-1.4149733,-4.6136265,9.040505,0.5131268,0.21380283,0.018325957,TREMOR,635380530830
1776132006241,18543807030594,-2.1906946,-5.116409,6.7492547,0.6462954,0.1001819,0.06963864,TREMOR,635380530830
1776132006261,18543827019608,-1.7812861,-5.1020436,5.781997,-0.052534413,-0.11362094,0.17470746,TREMOR,635380530830
1776132006302,18543847039139,-1.8674773,-6.4380083,8.159439,-1.3267993,-0.036651913,0.07696902,TREMOR,635380530830
1776132006304,18543867089188,-2.1523874,-6.2823853,9.296685,-1.3329079,0.10629055,-0.07086037,TREMOR,635380530830
1776132006321,18543887108719,-1.5969325,-5.0014873,8.808268,-1.0152581,0.13927728,0.065973446,TREMOR,635380530830
1776132006348,18543907158768,-1.400608,-6.2943563,8.066066,-0.75136423,0.21380283,0.05009095,TREMOR,635380530830
1776132006364,18543927178299,-1.2066777,-7.9511437,7.824251,0.516792,0.25411993,-0.062308256,TREMOR,635380530830
1776132006388,18543947197830,-0.92655605,-7.1490865,8.003817,2.4373524,0.2846632,-0.09040806,TREMOR,635380530830
1776132006404,18543967217362,-1.3455414,-6.1076083,7.515399,4.1013494,0.25778514,0.02443461,TREMOR,635380530830
1776132006423,18543987236893,-1.7405846,-3.5434184,7.920019,4.709771,0.172264,0.007330383,TREMOR,635380530830
1776132006441,18544007256424,-1.8914193,-1.6711528,8.0445175,3.8154643,0.096516706,0.029321533,TREMOR,635380530830
1776132006462,18544027275955,-2.0590134,-1.5610195,8.355764,2.2174408,0.06841691,0.13927728,TREMOR,635380530830
1776132006494,18544047264969,-2.3989902,-1.4820108,8.580819,0.87109387,0.06841691,0.15760323,TREMOR,635380530830
1776132006501,18544067315018,-2.4468741,-0.30166942,8.3150625,-0.3921755,0.009773844,0.14905111,TREMOR,635380530830
1776132006529,18544087365067,-1.9967642,-0.4189853,8.061277,-2.3518312,-0.036651913,0.12217305,TREMOR,635380530830
1776132006541,18544107384598,-1.8387469,-2.3558946,7.8984714,-4.194201,-0.0061086523,0.0720821,TREMOR,635380530830
1776132006563,18544127404129,-2.0231004,-4.3526587,8.183381,-4.968778,-0.02565634,-0.021991149,TREMOR,635380530830
1776132006588,18544147393143,-2.3199813,-9.7324295,8.324639,-4.2504005,-0.15149458,0.018325957,TREMOR,635380530830
1776132006604,18544167443192,-1.7717092,-8.834604,6.2225304,-1.1007792,-0.29565877,-0.042760566,TREMOR,635380530830
1776132006621,18544187432205,-1.1252748,-5.315128,7.5465236,2.2540927,-0.28099802,-0.23945917,TREMOR,635380530830
1776132006642,18544207482254,-1.6017209,-4.3981485,9.057265,3.408628,-0.17715092,-0.02443461,TREMOR,635380530830
1776132006662,18544227501786,-1.6448165,-1.9871874,9.394848,2.656042,-0.22235495,-0.042760566,TREMOR,635380530830
1776132006694,18544247551834,-1.067814,-0.50757074,7.7691846,0.07696902,-0.2602286,0.039095376,TREMOR,635380530830
1776132006703,18544267540848,-1.3838485,-3.9671922,7.098808,-2.7085764,-0.21991149,0.064751714,TREMOR,635380530830
1776132006727,18544287621414,-1.6400281,-5.923255,8.056489,-3.86189,-0.25045475,-0.02321288,TREMOR,635380530830
1776132006743,18544307671463,-1.7549498,-10.117896,8.317456,-3.055548,-0.32742378,-0.04642576,TREMOR,635380530830
1776132006776,18544327721512,-0.92176765,-10.115502,8.180987,-0.036651913,-0.20525073,-0.064751714,TREMOR,635380530830
1776132006782,18544347771561,-0.91697925,-6.0166287,7.884106,3.040887,-0.04642576,-0.06963864,TREMOR,635380530830
1776132006808,18544367791092,-1.5705963,-3.8642416,8.310274,4.0915756,0.07086037,0.1001819,TREMOR,635380530830
1776132006823,18544387810623,-1.484405,-2.8634653,8.588001,3.6114354,0.018325957,0.05497787,TREMOR,635380530830
1776132006851,18544407860672,-1.1851299,-1.9847932,8.267179,2.26631,-0.02321288,0.064751714,TREMOR,635380530830
1776132006873,18544427880204,-1.6041151,-1.922544,8.283937,0.9016371,0.017104227,0.06352998,TREMOR,635380530830
1776132006888,18544447930252,-1.673547,-1.8076223,8.413225,-0.5216789,-0.06352998,0.07574729,TREMOR,635380530830
1776132006911,18544467949784,-1.6304513,-2.7102363,8.066066,-1.7482964,-0.11362094,0.058643065,TREMOR,635380530830
1776132006923,18544487999832,-1.520318,-3.4739866,8.226477,-2.4898868,-0.12705997,-0.007330383,TREMOR,635380530830
1776132006944,18544508110916,-1.4772224,-5.437232,9.23683,-2.6719246,-0.1282817,0.030543262,TREMOR,635380530830
1776132006976,18544528160965,-1.3958195,-6.682217,8.722076,-1.9743165,-0.13561209,0.057421334,TREMOR,635380530830
1776132006986,18544548241532,-1.0319009,-6.1530986,7.9487495,-0.64996064,-0.19425514,0.0,TREMOR,635380530830
1776132007010,18544568352616,-0.60333884,-6.3350577,8.772355,0.6084218,-0.18570304,-0.037873644,TREMOR,635380530830
1776132007023,18544588402664,-0.7206547,-6.682217,9.8042555,1.7910569,-0.039095376,-0.096516706,TREMOR,635380530830
1776132007044,18544608452713,-0.6943185,-5.2887917,10.000581,3.0848694,0.1160644,-0.035430185,TREMOR,635380530830
1776132007064,18544628472245,-1.0175357,-3.1627405,9.411607,3.6419785,0.2443461,-0.02321288,TREMOR,635380530830
1776132007085,18544648491776,-1.115698,-2.3295584,9.334992,3.3108897,0.3933972,0.034208454,TREMOR,635380530830
1776132007106,18544668511307,-1.3551182,-2.006341,8.614338,2.983466,0.48747048,0.004886922,TREMOR,635380530830
1776132007122,18544688530838,-1.7501614,-0.4285621,8.461109,2.6939158,0.4361578,-0.02321288,TREMOR,635380530830
1776132007142,18544708580887,-1.7046716,-0.1364695,8.62152,1.7886134,0.344528,-0.015882496,TREMOR,635380530830
1776132007165,18544728600418,-1.5705963,-1.091756,8.781932,0.6072,0.2968805,-0.017104227,TREMOR,635380530830
1776132007187,18544748619950,-1.5610195,-1.2761095,8.690952,0.16737708,0.2761111,-0.02443461,TREMOR,635380530830
1776132007204,18544768639481,-1.8315643,0.46208093,7.905654,-1.2754866,0.05131268,-0.037873644,TREMOR,635380530830
1776132007226,18544788659012,-1.7166426,1.2641385,7.6734166,-2.2321017,0.007330383,-0.018325957,TREMOR,635380530830
1776132007243,18544808678543,-1.8602947,-0.9648633,7.872135,-4.1416664,-0.03176499,-0.064751714,TREMOR,635380530830
1776132007271,18544828759110,-2.1667526,-3.881001,7.6853876,-5.3487363,-0.1600467,-0.065973446,TREMOR,635380530830
1776132007288,18544848778641,-2.2577322,-6.517017,8.765172,-5.3560667,-0.2406809,-0.14049901,TREMOR,635380530830
1776132007305,18544868798172,-2.3080103,-9.883265,8.805874,-3.8374555,-0.22357668,-0.08674286,TREMOR,635380530830
1776132007322,18544888817704,-1.5035586,-7.955932,8.106767,-0.535118,-0.17348573,-0.12583824,TREMOR,635380530830
1776132007342,18544908837235,-1.0462662,-5.8562174,8.446744,2.398257,-0.042760566,-0.15760323,TREMOR,635380530830
1776132007364,18544928856766,-1.3958195,-4.048595,8.980651,3.3341024,0.087964594,-0.18570304,TREMOR,635380530830
1776132007398,18544948876297,-1.2378023,-2.7246015,8.92319,2.7293458,0.04153884,-0.058643065,TREMOR,635380530830
1776132007403,18544968926346,-1.0319009,-2.4516625,8.224083,1.4355333,0.04886922,-0.007330383,TREMOR,635380530830
1776132007424,18544988976395,-1.3479356,-2.2098482,7.548918,0.07086037,0.015882496,-0.0036651916,TREMOR,635380530830
1776132007443,18545008995926,-1.352724,-3.359065,8.714894,-1.1325442,-0.0061086523,0.0012217305,TREMOR,635380530830
1776132007482,18545028984940,-1.5849615,-5.267244,8.719683,-1.7067575,-0.096516706,0.035430185,TREMOR,635380530830
1776132007484,18545049034989,-1.5777789,-6.945579,8.822633,-1.1325442,-0.13194689,0.02687807,TREMOR,635380530830
1776132007505,18545069024002,-1.328782,-6.531382,8.7532015,0.50579643,-0.06719518,-0.02321288,TREMOR,635380530830
1776132007523,18545089074051,-1.508347,-4.225766,9.5385,1.9682078,0.057421334,-0.015882496,TREMOR,635380530830
1776132007546,18545109093582,-1.541866,-3.2513258,9.622296,2.276084,0.12705997,0.065973446,TREMOR,635380530830
1776132007573,18545129113114,-1.3479356,-2.542642,8.6095495,2.053729,0.15760323,0.080634214,TREMOR,635380530830
1776132007584,18545149163163,-1.412579,-1.8076223,8.422802,1.5613716,0.13805555,0.11362094,TREMOR,635380530830
1776132007605,18545169182694,-1.5729905,-0.59855044,7.9128366,0.45448375,0.052534413,0.07696902,TREMOR,635380530830
1776132007623,18545189171707,-1.8315643,0.15801731,7.680599,-1.6310102,-0.028099801,0.032986723,TREMOR,635380530830
1776132007645,18545209221756,-1.769315,-2.825158,8.025364,-3.8655553,-0.05375614,0.015882496,TREMOR,635380530830
1776132007672,18545229241288,-1.9440918,-4.9200845,8.379706,-4.8588223,-0.105068825,-0.030543262,TREMOR,635380530830
1776132007688,18545249291336,-1.8028339,-9.911995,9.232041,-3.7739255,-0.13439035,-0.009773844,TREMOR,635380530830
1776132007705,18545269310868,-1.2306197,-8.200141,8.463503,-0.5717699,-0.047647487,-0.1001819,TREMOR,635380530830
1776132007723,18545289330399,-0.8882488,-4.6830587,7.824251,2.0390682,0.007330383,-0.08307768,TREMOR,635380530830
1776132007745,18545309319413,-1.496376,-3.9025488,8.054094,2.6352727,0.111177474,-0.034208454,TREMOR,635380530830
1776132007772,18545329338944,-1.5777789,-3.6655228,8.274361,2.147802,0.04153884,-0.09407325,TREMOR,635380530830
1776132007788,18545349358475,-1.3575124,-2.4109612,8.403648,1.2302825,-0.05375614,-0.096516706,TREMOR,635380530830
1776132007811,18545369408524,-1.7166426,-2.5833437,7.9870567,-0.45204028,-0.05497787,-0.039095376,TREMOR,635380530830
1776132007823,18545389428055,-1.8028339,-4.0438066,8.173804,-1.7886134,-0.06841691,-0.06352998,TREMOR,635380530830
1776132007844,18545409478104,-1.5729905,-5.080496,8.554482,-2.1429152,-0.07696902,-0.09773844,TREMOR,635380530830
1776132007872,18545429528153,-1.6472107,-5.815516,8.329428,-1.8106046,-0.058643065,-0.04642576,TREMOR,635380530830
1776132007888,18545449547684,-1.6017209,-5.7987566,7.551312,-1.0543534,-0.095294975,-0.047647487,TREMOR,635380530830
1776132007905,18545469597733,-1.4341269,-5.7748146,7.1849995,-0.32986724,-0.15149458,-0.08674286,TREMOR,635380530830
1776132007924,18545489647782,-1.3670892,-5.8801594,7.4483614,0.09162979,-0.20891592,-0.12950343,TREMOR,635380530830
1776132007945,18545509697830,-1.3694834,-5.5737014,7.5920134,0.27855456,-0.29810223,-0.17104226,TREMOR,635380530830
1776132007976,18545529808914,-1.103727,-5.281609,9.0716305,0.33964106,-0.28344148,-0.2003638,TREMOR,635380530830
1776132007986,18545549858963,-0.9911995,-5.499481,9.629479,0.35918877,-0.16493362,-0.12705997,TREMOR,635380530830
1776132008009,18545569909012,-0.7062895,-5.4180784,9.497798,0.56321776,0.007330383,-0.040317107,TREMOR,635380530830
1776132008028,18545589959061,-0.7350199,-5.4659624,8.805874,0.9053023,0.14172074,0.009773844,TREMOR,635380530830
1776132008051,18545610009110,-0.7134721,-4.903325,8.628703,1.2791518,0.23823744,0.02321288,TREMOR,635380530830
1776132008070,18545630089676,-0.6967127,-4.1635165,8.662222,1.4001031,0.28588495,0.040317107,TREMOR,635380530830
1776132008086,18545650139725,-0.80205756,-3.6176388,8.817844,1.0934488,0.32498032,0.0720821,TREMOR,635380530830
1776132008107,18545670189774,-1.2521675,-3.217807,8.834604,0.6133087,0.3494149,0.037873644,TREMOR,635380530830
1776132008125,18545690239823,-1.7669208,-2.1547816,6.0956373,-0.6914995,0.14660765,0.12950343,TREMOR,635380530830
1776132008145,18545710259354,-1.9177556,-3.7181952,6.0142345,-2.58396,-0.012217305,0.10262536,TREMOR,635380530830
1776132008177,18545730278885,-2.135628,-6.019023,8.523358,-3.9962804,-0.034208454,-0.028099801,TREMOR,635380530830
1776132008186,18545750298416,-1.9608512,-7.1275387,8.916007,-3.8227947,-0.015882496,0.042760566,TREMOR,635380530830
1776132008205,18545770317948,-1.4748282,-7.4363904,8.063671,-2.4361305,0.028099801,0.039095376,TREMOR,635380530830
1776132008228,18545790367997,-1.103727,-8.286332,7.065289,-0.48624873,0.042760566,-0.05497787,TREMOR,635380530830
1776132008244,18545810418045,-1.163582,-7.467515,7.503428,1.5674802,0.12461651,-0.16737708,TREMOR,635380530830
1776132008281,18545830407059,-1.1994951,-6.885724,7.445967,3.3035593,0.080634214,-0.1441642,TREMOR,635380530830
1776132008285,18545850426590,-1.388637,-5.327099,7.9607205,4.373795,0.09162979,-0.22968534,TREMOR,635380530830
1776132008305,18545870446122,-1.6304513,-3.169923,8.24563,4.013385,0.021991149,-0.20280726,TREMOR,635380530830
1776132008325,18545890465653,-1.6807296,-3.0334535,7.668628,2.5375342,-0.040317107,-0.081855945,TREMOR,635380530830
1776132008346,18545910454666,-1.4556746,-3.3542767,8.377312,1.2534955,-0.0720821,-0.058643065,TREMOR,635380530830
1776132008372,18545930443680,-1.3335704,-2.6719291,8.662222,0.3921755,-0.056199603,-0.07086037,TREMOR,635380530830
1776132008388,18545950493729,-1.2808979,-0.9792285,8.616732,-0.9859365,-0.02687807,-0.02687807,TREMOR,635380530830
1776132008405,18545970513260,-1.2162545,-1.6184803,7.9990277,-3.1435125,0.081855945,0.028099801,TREMOR,635380530830
1776132008428,18545990532791,-1.6041151,-4.7979803,7.117962,-5.0799556,0.056199603,0.07819075,TREMOR,635380530830
1776132008445,18546010552323,-1.6136919,-7.577648,6.375759,-5.6321774,-0.12705997,0.09040806,TREMOR,635380530830
1776132008479,18546030541336,-1.1563994,-8.106767,7.0365586,-4.3664646,-0.18081611,-0.064751714,TREMOR,635380530830
1776132008490,18546050591385,-1.3215994,-9.574412,7.156269,-2.0732768,-0.16126843,-0.08552113,TREMOR,635380530830
1776132008508,18546070610916,-0.94092125,-10.388441,6.8306575,0.9627236,-0.18203785,-0.21502456,TREMOR,635380530830
1776132008526,18546090630448,-0.7613561,-8.056489,7.410054,3.803247,-0.09162979,-0.37507126,TREMOR,635380530830
1776132008545,18546110649979,-0.866701,-5.2528787,8.046912,5.119051,-0.058643065,-0.2932153,TREMOR,635380530830
1776132008572,18546130669510,-1.1563994,-2.8874073,8.599973,4.428773,-0.008552114,-0.2443461,TREMOR,635380530830
1776132008588,18546150689041,-1.1971009,-0.58897364,7.383718,1.7898352,-0.018325957,-0.07086037,TREMOR,635380530830
1776132008606,18546170739090,-1.3263878,-2.4468741,6.682217,-1.6065756,-0.07452556,0.073303826,TREMOR,635380530830
1776132008624,18546190758622,-1.376666,-6.136339,7.4268136,-4.1453314,-0.13316862,0.13439035,TREMOR,635380530830
1776132008645,18546210778153,-1.1827357,-8.329428,8.003817,-4.4935246,-0.105068825,0.10262536,TREMOR,635380530830
1776132008677,18546230828202,-1.0821792,-10.055647,7.943961,-2.6853635,-0.09162979,0.07819075,TREMOR,635380530830
1776132008684,18546250878250,-0.22984336,-8.7053175,7.575254,0.3885103,-0.008552114,0.056199603,TREMOR,635380530830
1776132008718,18546270897782,-0.533907,-6.215348,7.493851,2.7794368,0.18448131,0.009773844,TREMOR,635380530830
1776132008728,18546290978348,-0.93134445,-5.231331,7.807492,3.659083,0.19425514,0.105068825,TREMOR,635380530830
1776132008756,18546310997879,-0.91697925,-3.7062242,8.4347725,3.259577,0.15027285,0.004886922,TREMOR,635380530830
1776132008772,18546331017411,-1.2401965,-2.4971523,7.273585,1.4831808,0.12339478,0.07819075,TREMOR,635380530830
1776132008788,18546351036942,-1.7429788,-3.1483753,6.991069,-0.79168135,0.06352998,0.13683382,TREMOR,635380530830
1776132008807,18546371056473,-1.7884687,-5.353435,7.85777,-2.4691174,-0.02687807,0.119729586,TREMOR,635380530830
1776132008825,18546391137039,-1.5466543,-6.5337763,8.240842,-2.823419,-0.056199603,0.12217305,TREMOR,635380530830
1776132008845,18546411187088,-1.3838485,-6.6486983,7.7332716,-1.9645426,-0.035430185,0.09773844,TREMOR,635380530830
1776132008872,18546431237137,-1.1492168,-6.2345014,7.417237,-0.88331115,-0.007330383,0.095294975,TREMOR,635380530830
1776132008889,18546451256668,-1.0079589,-4.8841715,7.1969705,-0.643852,0.0012217305,0.10262536,TREMOR,635380530830
1776132008910,18546471276200,-1.4891934,-4.8338933,6.4188547,-1.7104226,0.0012217305,0.13561209,TREMOR,635380530830
1776132008925,18546491326248,-1.5011644,-6.622362,6.3302693,-2.9150488,-0.10873401,0.06719518,TREMOR,635380530830
1776132008946,18546511376297,-1.2018893,-8.406042,6.4523735,-3.1386256,-0.20280726,-0.014660766,TREMOR,635380530830
1776132008981,18546531426346,-0.9864111,-10.005369,6.7372837,-1.8509218,-0.26389378,-0.07941248,TREMOR,635380530830
1776132008987,18546551506913,-0.59376204,-10.06283,6.679823,0.61208695,-0.20158553,-0.18081611,TREMOR,635380530830
1776132009006,18546571526444,-0.6991069,-9.229648,6.457162,3.1630602,-0.10629055,-0.19303341,TREMOR,635380530830
1776132009038,18546591576493,-0.7134721,-7.9032598,6.9743094,5.0261993,-0.0842994,-0.1160644,TREMOR,635380530830
1776132009070,18546611626541,-0.89543146,-5.140351,8.226477,5.574756,0.043982297,-0.16615535,TREMOR,635380530830
1776132009074,18546631737625,-0.9792285,-2.6743233,8.358158,4.2772784,0.12461651,-0.034208454,TREMOR,635380530830
1776132009094,18546651787674,-1.0726024,-1.1779473,7.955932,1.4428637,0.21624629,0.13927728,TREMOR,635380530830
1776132009108,18546671837723,-1.4460979,-3.4261026,7.565677,-1.4196508,0.25167647,0.18692477,TREMOR,635380530830
1776132009128,18546691979325,-1.4508862,-6.3589997,8.765172,-2.905275,0.23579398,0.15515977,TREMOR,635380530830
1776132009155,18546712029373,-1.0223241,-9.799467,8.154651,-1.863139,0.1563815,0.09773844,TREMOR,635380530830
1776132009172,18546732140457,-0.6607997,-6.9862804,8.14268,1.3390167,0.36285394,-0.10140363,TREMOR,635380530830
1776132009188,18546752190506,-1.1180922,-3.916914,7.764396,3.5185838,0.41538838,-0.02076942,TREMOR,635380530830
1776132009209,18546772301590,-1.8650831,-3.763685,8.492233,3.9180896,0.39706242,0.052534413,TREMOR,635380530830
1776132009229,18546792351639,-1.6017209,-3.028665,8.391677,3.5283577,0.24801129,-0.07696902,TREMOR,635380530830
1776132009257,18546812432205,-1.4939818,-1.2186487,8.219295,2.5497515,0.16249016,-0.07696902,TREMOR,635380530830
1776132009267,18546832421219,-1.9297266,-0.23463176,7.752425,1.1301007,0.103847094,-0.039095376,TREMOR,635380530830
1776132009289,18546852471268,-1.9871874,1.496376,6.9767036,-1.3451253,-0.043982297,0.014660766,TREMOR,635380530830
1776132009311,18546872551834,-2.3678656,-1.3910311,6.2392898,-4.422664,-0.10629055,-0.021991149,TREMOR,635380530830
1776132009326,18546892571366,-2.3415294,-4.6112323,6.6079965,-6.5472536,-0.28344148,-0.06352998,TREMOR,635380530830
1776132009348,18546912621414,-2.219425,-8.037335,7.7332716,-7.000516,-0.3494149,-0.2003638,TREMOR,635380530830
1776132009372,18546932671463,-1.5897499,-9.945514,7.129933,-5.7348027,-0.3885103,-0.15393804,TREMOR,635380530830
1776132009388,18546952690995,-0.7565677,-9.208099,6.1746464,-3.0176742,-0.31031954,-0.15760323,TREMOR,635380530830
1776132009407,18546972741043,-0.89543146,-9.572019,6.2704144,-0.2968805,-0.2443461,-0.16126843,TREMOR,635380530830
1776132009426,18546992791092,-0.59855044,-9.030929,6.8067155,1.690875,-0.24312437,-0.34208453,TREMOR,635380530830
1776132009458,18547012841141,-0.39025488,-7.8146744,7.386112,3.037222,-0.23457226,-0.35308012,TREMOR,635380530830
1776132009474,18547032860672,-0.30166942,-7.1634517,7.788338,3.4929276,-0.25534168,-0.27000242,TREMOR,635380530830
1776132009489,18547052880204,-0.40462008,-5.9280434,7.884106,3.015231,-0.18081611,-0.16493362,TREMOR,635380530830
1776132009507,18547072899735,-0.60812724,-5.2528787,7.4723034,2.0635028,-0.09896017,0.002443461,TREMOR,635380530830
1776132009528,18547092980301,-0.7015011,-5.1906295,7.8027034,1.047023,-0.04886922,0.09407325,TREMOR,635380530830
1776132009555,18547112999832,-0.7422025,-5.12838,8.429984,0.22113322,0.02443461,0.13439035,TREMOR,635380530830
1776132009573,18547133019364,-0.8643068,-4.0940847,8.192958,-0.31642818,0.111177474,0.17959438,TREMOR,635380530830
1776132009588,18547153038895,-0.94331545,-3.028665,7.943961,-1.5296066,0.18081611,0.2883284,TREMOR,635380530830
1776132009607,18547173058426,-1.4437037,-4.711789,7.45315,-3.4746015,0.24556783,0.35308012,TREMOR,635380530830
1776132009627,18547193108475,-1.4915876,-7.4986396,7.2185183,-4.4385467,0.15027285,0.32986724,TREMOR,635380530830
1776132009650,18547213128006,-1.2545617,-10.666168,6.8162923,-3.1557298,0.028099801,0.24556783,TREMOR,635380530830
1776132009678,18547233178055,-0.4405331,-10.879252,6.6989765,0.45204028,0.043982297,0.05131268,TREMOR,635380530830
1776132009689,18547253228104,-0.545878,-6.303933,7.3645644,3.962072,0.26389378,-0.19425514,TREMOR,635380530830
1776132009710,18547273247635,-1.340753,-5.2480903,7.589619,5.367062,0.20891592,-0.07086037,TREMOR,635380530830
1776132009729,18547293358719,-1.436521,-3.964798,7.577648,5.1117206,0.1282817,-0.14782938,TREMOR,635380530830
1776132009755,18547313378250,-1.3239936,-1.9776106,7.735666,3.7824776,0.10873401,-0.18081611,TREMOR,635380530830
1776132009772,18547333397782,-1.5131354,-0.23463176,7.477092,0.7965683,0.021991149,-0.05375614,TREMOR,635380530830
1776132009788,18547353478348,-1.9081788,-0.94570965,6.55293,-1.1447614,-0.0061086523,0.042760566,TREMOR,635380530830
1776132009811,18547373497879,-1.9393034,-4.8578353,7.2472486,-5.073847,-0.19547687,-0.018325957,TREMOR,635380530830
1776132009827,18547393547928,-1.484405,-7.1849995,7.9726915,-5.1728067,-0.17959438,-0.05375614,TREMOR,635380530830
1776132009856,18547413567459,-1.1444284,-9.689334,8.444349,-3.7519343,-0.1282817,-0.09896017,TREMOR,635380530830
1776132009872,18547433617508,-0.46447513,-9.069236,7.314286,-0.79168135,-0.043982297,-0.0842994,TREMOR,635380530830
1776132009889,18547453667557,-0.7541735,-6.9264255,6.8210807,1.9547688,0.087964594,-0.12583824,TREMOR,635380530830
1776132009911,18547473687088,-1.1228806,-6.2608376,7.417237,3.177721,0.07941248,-0.073303826,TREMOR,635380530830
1776132009927,18547493706620,-1.0773908,-4.8698063,7.5561004,3.042109,-0.028099801,-0.16737708,TREMOR,635380530830
1776132009961,18547513756668,-0.94570965,-3.7229836,7.666234,1.9669861,-0.09040806,-0.13072516,TREMOR,635380530830
1776132009970,18547533776200,-1.2138603,-3.9480386,7.5968018,0.29443705,-0.12705997,0.008552114,TREMOR,635380530830
1776132009995,18547553826248,-1.2976574,-5.0397944,7.97748,-1.0995574,-0.14294247,0.05497787,TREMOR,635380530830
1776132010008,18547573845780,-1.0845734,-6.0621185,8.329428,-1.6786577,-0.1600467,0.0842994,TREMOR,635380530830
1776132010028,18547593895829,-0.9768343,-6.801927,8.145074,-1.391551,-0.11728613,0.13316862,TREMOR,635380530830
1776132010056,18547613945877,-0.866701,-6.564901,7.9367785,-0.37751472,-0.087964594,0.11728613,TREMOR,635380530830
1776132010072,18547633995926,-0.8714894,-6.2512608,8.154651,0.63285637,-0.037873644,0.10140363,TREMOR,635380530830
1776132010095,18547654045975,-0.7182605,-7.7572136,8.477868,1.5906931,-0.047647487,0.10751228,TREMOR,635380530830
1776132010108,18547674065506,-0.56982,-6.43322,8.537724,2.734233,0.028099801,0.0842994,TREMOR,635380530830
1776132010129,18547694115555,-0.93373865,-3.7972038,8.231265,3.3475416,0.12339478,0.103847094,TREMOR,635380530830
1776132010156,18547714165604,-1.1851299,-3.1244333,8.324639,2.5399778,0.14049901,0.17837265,TREMOR,635380530830
1776132010172,18547734215653,-1.2737153,-2.2649148,8.3821,1.6200147,0.14049901,0.12217305,TREMOR,635380530830
1776132010189,18547754265702,-1.2665327,0.8523358,8.219295,0.6169739,0.08307768,-0.02443461,TREMOR,635380530830
1776132010209,18547774315750,-1.5682021,1.460463,7.603985,-2.053729,0.0720821,0.030543262,TREMOR,635380530830
1776132010230,18547794365799,-1.5346833,-3.2345665,7.9272017,-5.0066514,-0.039095376,-0.0061086523,TREMOR,635380530830
1776132010262,18547814446366,-1.2473791,-9.361329,9.351752,-5.6016345,-0.18325958,-0.065973446,TREMOR,635380530830
1776132010271,18547834526932,-0.107739076,-10.69011,8.343793,-2.5118778,-0.10995574,-0.10873401,TREMOR,635380530830
1776132010290,18547854546463,-0.5267244,-5.580884,7.3525934,1.3011429,0.13194689,-0.22724187,TREMOR,635380530830
1776132010311,18547874657547,-1.2330139,-5.0493712,7.575254,2.6108382,0.14049901,-0.08674286,TREMOR,635380530830
1776132010339,18547894707596,-1.2689269,-4.757279,8.082825,2.067168,-0.0061086523,-0.1685988,TREMOR,635380530830
1776132010362,18547914757645,-1.2449849,-3.5338416,7.445967,0.99082345,-0.057421334,-0.13316862,TREMOR,635380530830
1776132010371,18547934807694,-1.5346833,-3.5817258,7.4363904,-0.5119051,-0.09162979,-0.058643065,TREMOR,635380530830
1776132010389,18547954918778,-1.5873557,-4.19943,7.896077,-1.2425,-0.12461651,-0.04520403,TREMOR,635380530830
1776132010409,18547974968827,-1.2162545,-7.0365586,8.76996,-2.0231857,-0.19181168,0.017104227,TREMOR,635380530830
1776132010429,18547995018875,-0.8762778,-8.743625,8.360553,-1.0140363,-0.18325958,0.081855945,TREMOR,635380530830
