# epoch_ms,event_ts_ns,AX,AY,AZ,GX,GY,GZ,label,sessionID
1776917490768,2025715218835000,-9.787497,-0.37349546,1.6256629,NaN,NaN,NaN,TREMOR,557862465c0e
1776917490776,2025715226923314,-9.765948,-0.3878607,1.6424223,-0.0036651916,-0.0018325958,-0.004276057,TREMOR,557862465c0e
1776917490784,2025715234918089,-9.799467,-0.38307226,1.6256629,-0.0036651916,-0.0018325958,-0.004276057,TREMOR,557862465c0e
1776917490792,2025715242912556,-9.773131,-0.39743748,1.6089035,-0.0036651916,-0.0018325958,-0.004276057,TREMOR,557862465c0e
1776917490800,2025715250908255,-9.768343,-0.38067806,1.6160861,-0.0036651916,-0.0018325958,-0.004276057,TREMOR,557862465c0e
1776917490808,2025715258905184,-9.749189,-0.40462008,1.6184803,-0.0036651916,-0.0018325958,-0.004276057,TREMOR,557862465c0e
1776917490816,2025715266930421,-9.758766,-0.38307226,1.5993267,-0.0036651916,-0.0018325958,-0.004276057,TREMOR,557862465c0e
1776917490824,2025715274927657,-9.739613,-0.39983168,1.5897499,-0.0036651916,-0.0018325958,-0.004276057,TREMOR,557862465c0e
1776917490832,2025715282921510,-9.749189,-0.39983168,1.5873557,-0.0036651916,-0.0018325958,-0.004276057,TREMOR,557862465c0e
1776917490840,2025715290918439,-9.770737,-0.39264908,1.5993267,-0.0036651916,-0.0018325958,-0.004276057,TREMOR,557862465c0e
1776917490848,2025715298911983,-9.751583,-0.39264908,1.5849615,-0.0036651916,-0.0018325958,-0.004276057,TREMOR,557862465c0e
1776917490856,2025715306908297,-9.775525,-0.4141969,1.6089035,-0.0036651916,-0.0018325958,-0.004276057,TREMOR,557862465c0e
1776917490864,2025715314904611,-9.773131,-0.4141969,1.5897499,-0.0036651916,-0.0018325958,-0.004276057,TREMOR,557862465c0e
1776917490872,2025715322899309,-9.758766,-0.39264908,1.6089035,-0.0036651916,-0.0018325958,-0.004276057,TREMOR,557862465c0e
1776917490880,2025715330925238,-9.758766,-0.39504328,1.5825673,-0.0036651916,0.0061086523,-0.005497787,TREMOR,557862465c0e
1776917490888,2025715338922475,-9.768343,-0.40462008,1.5777789,-0.004276057,0.0061086523,-0.004276057,TREMOR,557862465c0e
1776917490896,2025715346919327,-9.785102,-0.39983168,1.5682021,-0.0061086523,0.007330383,-0.007330383,TREMOR,557862465c0e
1776917490904,2025715354913487,-9.785102,-0.40701428,1.5658079,-0.004886922,0.004886922,-0.004276057,TREMOR,557862465c0e
1776917490912,2025715362910108,-9.77792,-0.3878607,1.5801731,-0.0061086523,-0.0036651916,-0.004276057,TREMOR,557862465c0e
1776917490920,2025715370905268,-9.775525,-0.40462008,1.5969325,-0.005497787,-0.005497787,-0.0036651916,TREMOR,557862465c0e
1776917490928,2025715378902197,-9.7803135,-0.3878607,1.5969325,-0.005497787,-0.0061086523,-0.0018325958,TREMOR,557862465c0e
1776917490936,2025715386928280,-9.7803135,-0.3854665,1.6112977,-0.005497787,-0.005497787,-0.0018325958,TREMOR,557862465c0e
1776917490944,2025715394922825,-9.76116,-0.40940848,1.5969325,-0.005497787,-0.002443461,-0.0012217305,TREMOR,557862465c0e
1776917490952,2025715402916985,-9.753978,-0.39983168,1.5921441,-0.004886922,-0.0018325958,-0.0036651916,TREMOR,557862465c0e
1776917490960,2025715410911760,-9.792285,-0.39743748,1.6065093,-0.005497787,-0.002443461,-0.0036651916,TREMOR,557862465c0e
1776917490968,2025715418909612,-9.792285,-0.39743748,1.6041151,-0.004886922,-0.004276057,-0.004886922,TREMOR,557862465c0e
1776917490976,2025715426906772,-9.77792,-0.40701428,1.6280571,-0.0067195175,-0.0018325958,-0.004276057,TREMOR,557862465c0e
1776917490984,2025715434930855,-9.773131,-0.39025488,1.6065093,0.0012217305,0.0030543262,-0.005497787,TREMOR,557862465c0e
1776917490992,2025715442925630,-9.785102,-0.40222588,1.6280571,-0.0061086523,0.002443461,-0.0030543262,TREMOR,557862465c0e
1776917491000,2025715450922174,-9.7803135,-0.39504328,1.6136919,-0.004886922,0.004276057,-0.004886922,TREMOR,557862465c0e
1776917491008,2025715458918257,-9.77792,-0.40222588,1.6160861,-0.0030543262,0.01282817,-0.0030543262,TREMOR,557862465c0e
1776917491016,2025715466911802,-9.77792,-0.39743748,1.6017209,0.0012217305,0.01282817,0.0,TREMOR,557862465c0e
1776917491024,2025715474909269,-9.77792,-0.41180268,1.5993267,0.0018325958,0.016493361,-6.1086525E-4,TREMOR,557862465c0e
1776917491032,2025715482902891,-9.749189,-0.39504328,1.5801731,0.002443461,0.015271631,0.0,TREMOR,557862465c0e
1776917491040,2025715490931128,-9.775525,-0.40222588,1.541866,0.0030543262,0.015882496,-6.1086525E-4,TREMOR,557862465c0e
1776917491048,2025715498926211,-9.773131,-0.40462008,1.5514427,0.0036651916,0.01160644,-0.0018325958,TREMOR,557862465c0e
1776917491056,2025715506923140,-9.7563715,-0.40701428,1.532289,0.002443461,0.010995574,-0.0018325958,TREMOR,557862465c0e
1776917491064,2025715514916376,-9.763555,-0.3854665,1.5394717,0.002443461,0.007330383,-0.002443461,TREMOR,557862465c0e
1776917491072,2025715522912998,-9.753978,-0.3854665,1.5466543,0.0012217305,0.0036651916,-0.0012217305,TREMOR,557862465c0e
1776917491080,2025715530908081,-9.763555,-0.3878607,1.5490485,0.0,-6.1086525E-4,-0.002443461,TREMOR,557862465c0e
1776917491088,2025715538902933,-9.775525,-0.40701428,1.5658079,-6.1086525E-4,-0.0018325958,-6.1086525E-4,TREMOR,557862465c0e
1776917491096,2025715546930247,-9.787497,-0.40462008,1.5705963,-6.1086525E-4,-0.002443461,-0.0036651916,TREMOR,557862465c0e
1776917491104,2025715554926330,-9.8042555,-0.40222588,1.5801731,-0.0012217305,-0.004886922,-0.002443461,TREMOR,557862465c0e
1776917491112,2025715562922028,-9.7803135,-0.40462008,1.5729905,-0.0012217305,-0.0067195175,-0.002443461,TREMOR,557862465c0e
1776917491120,2025715570918034,-9.77792,-0.41180268,1.5777789,-0.0012217305,-0.007330383,0.0,TREMOR,557862465c0e
1776917491128,2025715578910963,-9.765948,-0.39743748,1.5801731,-0.002443461,-0.007330383,0.0,TREMOR,557862465c0e
1776917491136,2025715586906661,-9.770737,-0.40222588,1.5634137,-0.0036651916,-0.01038471,6.1086525E-4,TREMOR,557862465c0e
1776917491144,2025715594903898,-9.775525,-0.4165911,1.5993267,-0.002443461,-0.012217305,6.1086525E-4,TREMOR,557862465c0e
1776917491152,2025715602929366,-9.782708,-0.40462008,1.5825673,-0.002443461,-0.015882496,-6.1086525E-4,TREMOR,557862465c0e
1776917491160,2025715610925987,-9.765948,-0.40701428,1.5921441,-0.0012217305,-0.018936822,-0.0018325958,TREMOR,557862465c0e
1776917491168,2025715618920224,-9.768343,-0.3878607,1.5801731,-0.0012217305,-0.023823744,-6.1086525E-4,TREMOR,557862465c0e
1776917491176,2025715626917768,-9.773131,-0.3878607,1.5849615,0.0,-0.028099801,0.0,TREMOR,557862465c0e
1776917491184,2025715634912159,-9.76116,-0.39264908,1.5969325,0.0,-0.032375857,0.0012217305,TREMOR,557862465c0e
1776917491192,2025715642907934,-9.763555,-0.39983168,1.6232687,-6.1086525E-4,-0.031154128,-0.0018325958,TREMOR,557862465c0e
1776917491200,2025715650905094,-9.785102,-0.3854665,1.6328455,-6.1086525E-4,-0.02687807,-0.0018325958,TREMOR,557862465c0e
1776917491208,2025715658928177,-9.765948,-0.3878607,1.6136919,-0.0018325958,-0.020158553,-6.1086525E-4,TREMOR,557862465c0e
1776917491216,2025715666925491,-9.751583,-0.39983168,1.6089035,-6.1086525E-4,-0.013439035,6.1086525E-4,TREMOR,557862465c0e
1776917491224,2025715674921805,-9.765948,-0.39504328,1.6256629,-0.0018325958,-0.007330383,-0.002443461,TREMOR,557862465c0e
1776917491232,2025715682916887,-9.742006,-0.38067806,1.6208745,-0.0012217305,0.004276057,-6.1086525E-4,TREMOR,557862465c0e
1776917491240,2025715690912278,-9.7803135,-0.39504328,1.5945383,-0.002443461,0.008552114,0.0,TREMOR,557862465c0e
1776917491248,2025715698906746,-9.773131,-0.4165911,1.5945383,-0.002443461,0.01038471,-6.1086525E-4,TREMOR,557862465c0e
1776917491256,2025715706905521,-9.792285,-0.4261679,1.5753847,-0.0018325958,0.008552114,-6.1086525E-4,TREMOR,557862465c0e
1776917491264,2025715714928835,-9.801862,-0.39743748,1.5825673,-6.1086525E-4,6.1086525E-4,-0.0036651916,TREMOR,557862465c0e
1776917491272,2025715722925456,-9.785102,-0.39983168,1.6136919,-6.1086525E-4,-0.004276057,-0.0018325958,TREMOR,557862465c0e
1776917491280,2025715730920924,-9.765948,-0.4189853,1.6089035,-6.1086525E-4,-0.007941248,0.0,TREMOR,557862465c0e
1776917491288,2025715738916622,-9.770737,-0.40222588,1.6136919,0.0,-0.008552114,0.0012217305,TREMOR,557862465c0e
1776917491296,2025715746912936,-9.77792,-0.39025488,1.6136919,6.1086525E-4,-0.004886922,-6.1086525E-4,TREMOR,557862465c0e
1776917491304,2025715754908634,-9.775525,-0.40701428,1.6112977,-6.1086525E-4,6.1086525E-4,-0.002443461,TREMOR,557862465c0e
1776917491312,2025715762903332,-9.797073,-0.3854665,1.6280571,-0.0012217305,0.004886922,-6.1086525E-4,TREMOR,557862465c0e
1776917491320,2025715770930108,-9.77792,-0.39264908,1.6160861,-0.0018325958,0.005497787,0.0,TREMOR,557862465c0e
1776917491328,2025715778925267,-9.7803135,-0.37588966,1.6065093,-0.0036651916,0.009162978,6.1086525E-4,TREMOR,557862465c0e
1776917491336,2025715786920581,-9.7803135,-0.40462008,1.6041151,-0.002443461,0.007941248,-6.1086525E-4,TREMOR,557862465c0e
1776917491344,2025715794916356,-9.78989,-0.39264908,1.6208745,-0.0012217305,0.0067195175,-6.1086525E-4,TREMOR,557862465c0e
1776917491352,2025715802910516,-9.794679,-0.40222588,1.6065093,-0.0012217305,0.0067195175,-0.002443461,TREMOR,557862465c0e
1776917491360,2025715810907445,-9.768343,-0.4381389,1.6352397,-6.1086525E-4,0.007330383,-0.0012217305,TREMOR,557862465c0e
1776917491368,2025715818903144,-9.782708,-0.4165911,1.6256629,-0.0018325958,0.007941248,-0.0018325958,TREMOR,557862465c0e
1776917491376,2025715826929304,-9.782708,-0.40462008,1.6304513,-0.0012217305,0.01282817,-0.0012217305,TREMOR,557862465c0e
1776917491384,2025715834925310,-9.765948,-0.3854665,1.6256629,6.1086525E-4,0.017715093,0.0,TREMOR,557862465c0e
1776917491392,2025715842921316,-9.770737,-0.40462008,1.6065093,0.0012217305,0.019547688,-6.1086525E-4,TREMOR,557862465c0e
1776917491400,2025715850916091,-9.78989,-0.40701428,1.5897499,-0.0018325958,0.026267206,0.0,TREMOR,557862465c0e
1776917491408,2025715858913558,-9.742006,-0.39504328,1.5634137,-6.1086525E-4,0.032986723,0.0,TREMOR,557862465c0e
1776917491416,2025715866908026,-9.77792,-0.4237737,1.6041151,-0.0018325958,0.032986723,-0.0018325958,TREMOR,557862465c0e
1776917491424,2025715874902801,-9.7563715,-0.39983168,1.5969325,-0.0030543262,0.035430185,-6.1086525E-4,TREMOR,557862465c0e
1776917491432,2025715882927730,-9.765948,-0.39025488,1.5658079,-6.1086525E-4,0.034208454,-6.1086525E-4,TREMOR,557862465c0e
1776917491440,2025715890923506,-9.770737,-0.39743748,1.5394717,0.0030543262,0.031154128,0.0018325958,TREMOR,557862465c0e
1776917491448,2025715898918896,-9.744401,-0.40222588,1.5394717,-6.1086525E-4,0.027488936,0.0012217305,TREMOR,557862465c0e
1776917491456,2025715906915825,-9.770737,-0.40222588,1.5370775,-6.1086525E-4,0.023823744,-6.1086525E-4,TREMOR,557862465c0e
1776917491464,2025715914910524,-9.768343,-0.40940848,1.532289,-6.1086525E-4,0.019547688,0.0012217305,TREMOR,557862465c0e
1776917491472,2025715922907222,-9.765948,-0.4165911,1.5251064,0.0,0.008552114,6.1086525E-4,TREMOR,557862465c0e
1776917491480,2025715930903459,-9.768343,-0.39983168,1.5466543,6.1086525E-4,6.1086525E-4,0.0018325958,TREMOR,557862465c0e
1776917491488,2025715938930234,-9.751583,-0.39983168,1.553837,0.0,-0.0018325958,0.0,TREMOR,557862465c0e
1776917491496,2025715946924701,-9.7803135,-0.4141969,1.5346833,0.0012217305,-0.004886922,6.1086525E-4,TREMOR,557862465c0e
1776917491504,2025715954918938,-9.775525,-0.41180268,1.541866,0.0012217305,-0.0067195175,-6.1086525E-4,TREMOR,557862465c0e
1776917491512,2025715962916098,-9.77792,-0.3878607,1.5610195,0.0,-0.009773844,0.0012217305,TREMOR,557862465c0e
1776917491520,2025715970912181,-9.797073,-0.40462008,1.5490485,0.0,-0.017104227,-0.0012217305,TREMOR,557862465c0e
1776917491528,2025715978905649,-9.782708,-0.39264908,1.5729905,6.1086525E-4,-0.018325957,-6.1086525E-4,TREMOR,557862465c0e
1776917491536,2025715986903578,-9.770737,-0.40222588,1.5825673,-0.0012217305,-0.020158553,0.0012217305,TREMOR,557862465c0e
1776917491544,2025715994928507,-9.770737,-0.39264908,1.5921441,-0.0030543262,-0.017104227,0.0,TREMOR,557862465c0e
1776917491552,2025716002923513,-9.768343,-0.41180268,1.5682021,-0.0012217305,-0.014660766,-0.0012217305,TREMOR,557862465c0e
1776917491560,2025716010918596,-9.765948,-0.40222588,1.5682021,-6.1086525E-4,-0.017715093,0.0,TREMOR,557862465c0e
1776917491568,2025716018915833,-9.785102,-0.40462008,1.5729905,-6.1086525E-4,-0.018325957,0.0012217305,TREMOR,557862465c0e
1776917491576,2025716026910992,-9.763555,-0.39743748,1.5825673,0.0,-0.020158553,-0.0018325958,TREMOR,557862465c0e
1776917491584,2025716034905691,-9.768343,-0.41180268,1.5801731,0.0,-0.019547688,0.0012217305,TREMOR,557862465c0e
1776917491592,2025716042902697,-9.7803135,-0.39504328,1.5945383,-6.1086525E-4,-0.018936822,0.0012217305,TREMOR,557862465c0e
1776917491600,2025716050929164,-9.763555,-0.4141969,1.5897499,6.1086525E-4,-0.018936822,0.0,TREMOR,557862465c0e
1776917491608,2025716058922401,-9.770737,-0.39983168,1.5849615,6.1086525E-4,-0.015882496,0.0018325958,TREMOR,557862465c0e
1776917491616,2025716066920484,-9.758766,-0.40462008,1.5921441,0.0012217305,-0.01160644,6.1086525E-4,TREMOR,557862465c0e
1776917491624,2025716074914336,-9.765948,-0.40462008,1.5945383,0.0018325958,-0.01282817,6.1086525E-4,TREMOR,557862465c0e
1776917491632,2025716082910112,-9.78989,-0.40222588,1.5753847,-6.1086525E-4,-0.017104227,0.0,TREMOR,557862465c0e
1776917491640,2025716090905425,-9.799467,-0.4189853,1.6017209,0.0018325958,-0.022602014,6.1086525E-4,TREMOR,557862465c0e
1776917491648,2025716098900585,-9.7803135,-0.39983168,1.6017209,0.0030543262,-0.028710667,0.0030543262,TREMOR,557862465c0e
1776917491656,2025716106928283,-9.78989,-0.39743748,1.6136919,0.0012217305,-0.030543262,6.1086525E-4,TREMOR,557862465c0e
1776917491664,2025716114923674,-9.770737,-0.39983168,1.6208745,0.0030543262,-0.028099801,0.0018325958,TREMOR,557862465c0e
1776917491672,2025716122918142,-9.768343,-0.4213795,1.6041151,0.002443461,-0.02321288,0.0,TREMOR,557862465c0e
1776917491680,2025716130913840,-9.76116,-0.37349546,1.6160861,0.0012217305,-0.015882496,0.0,TREMOR,557862465c0e
1776917491688,2025716138910769,-9.768343,-0.38307226,1.5945383,-0.0018325958,-0.01038471,0.0,TREMOR,557862465c0e
1776917491696,2025716146908237,-9.758766,-0.39504328,1.5897499,-6.1086525E-4,-0.007330383,-0.0018325958,TREMOR,557862465c0e
1776917491704,2025716154902704,-9.775525,-0.40701428,1.6280571,-0.002443461,-0.007941248,-0.0012217305,TREMOR,557862465c0e
1776917491712,2025716162927710,-9.770737,-0.4141969,1.6208745,-0.002443461,-0.007941248,-0.0012217305,TREMOR,557862465c0e
1776917491720,2025716170925178,-9.765948,-0.39743748,1.6280571,-0.0030543262,-0.004276057,-0.0012217305,TREMOR,557862465c0e
1776917491728,2025716178919107,-9.7563715,-0.39743748,1.6256629,-0.0036651916,0.004276057,6.1086525E-4,TREMOR,557862465c0e
1776917491736,2025716186916267,-9.792285,-0.39743748,1.6328455,-0.0036651916,0.010995574,-0.0012217305,TREMOR,557862465c0e
1776917491744,2025716194912657,-9.782708,-0.38307226,1.6136919,-0.002443461,0.015271631,-0.0018325958,TREMOR,557862465c0e
1776917491752,2025716202906202,-9.775525,-0.4213795,1.6065093,-0.0030543262,0.02321288,-6.1086525E-4,TREMOR,557862465c0e
1776917491760,2025716210901823,-9.782708,-0.4141969,1.5921441,-0.0030543262,0.027488936,0.0,TREMOR,557862465c0e
1776917491768,2025716218928598,-9.794679,-0.40462008,1.5969325,-0.0012217305,0.02565634,0.0,TREMOR,557862465c0e
1776917491776,2025716226923143,-9.765948,-0.37828386,1.5945383,0.0,0.02687807,0.0,TREMOR,557862465c0e
1776917491784,2025716234919764,-9.792285,-0.40701428,1.5945383,6.1086525E-4,0.02443461,-6.1086525E-4,TREMOR,557862465c0e
1776917491792,2025716242913617,-9.773131,-0.39743748,1.5682021,0.0012217305,0.026267206,0.0018325958,TREMOR,557862465c0e
1776917491800,2025716250910161,-9.77792,-0.40701428,1.5682021,0.0012217305,0.023823744,0.0018325958,TREMOR,557862465c0e
1776917491808,2025716258906782,-9.775525,-0.39504328,1.5634137,0.002443461,0.02321288,-0.0012217305,TREMOR,557862465c0e
1776917491816,2025716266900942,-9.7803135,-0.3878607,1.5729905,0.002443461,0.020158553,0.0012217305,TREMOR,557862465c0e
1776917491824,2025716274927718,-9.785102,-0.40222588,1.5634137,0.004276057,0.018936822,0.0012217305,TREMOR,557862465c0e
1776917491832,2025716282921954,-9.765948,-0.4141969,1.553837,0.004276057,0.017715093,0.0036651916,TREMOR,557862465c0e
1776917491840,2025716290918883,-9.76116,-0.4141969,1.5370775,0.0061086523,0.016493361,0.0036651916,TREMOR,557862465c0e
1776917491848,2025716298915120,-9.78989,-0.40701428,1.5251064,0.004886922,0.017715093,0.002443461,TREMOR,557862465c0e
1776917491856,2025716306911511,-9.794679,-0.4141969,1.5825673,0.0012217305,0.012217305,0.002443461,TREMOR,557862465c0e
1776917491864,2025716314904671,-9.758766,-0.37588966,1.553837,0.0012217305,0.009162978,0.0036651916,TREMOR,557862465c0e
1776917491872,2025716322932984,-9.753978,-0.3854665,1.5442601,0.004886922,0.0018325958,0.0036651916,TREMOR,557862465c0e
1776917491880,2025716330928144,-9.7563715,-0.36631286,1.541866,0.0030543262,-0.002443461,0.002443461,TREMOR,557862465c0e
1776917491888,2025716338923458,-9.763555,-0.39264908,1.5394717,6.1086525E-4,-0.004886922,0.002443461,TREMOR,557862465c0e
1776917491896,2025716346919233,-9.775525,-0.3878607,1.5490485,0.0018325958,-0.007941248,-6.1086525E-4,TREMOR,557862465c0e
1776917491904,2025716354913316,-9.77792,-0.37588966,1.5586253,6.1086525E-4,-0.018325957,0.0,TREMOR,557862465c0e
1776917491912,2025716362909399,-9.7803135,-0.39264908,1.5490485,0.0018325958,-0.021380283,-0.0012217305,TREMOR,557862465c0e
1776917491920,2025716370904405,-9.77792,-0.40222588,1.5825673,6.1086525E-4,-0.02687807,0.0,TREMOR,557862465c0e
1776917491928,2025716378899796,-9.787497,-0.3854665,1.5562311,6.1086525E-4,-0.028710667,0.0018325958,TREMOR,557862465c0e
1776917491936,2025716386926648,-9.7803135,-0.40222588,1.6089035,-6.1086525E-4,-0.03359759,-0.0018325958,TREMOR,557862465c0e
1776917491944,2025716394922654,-9.785102,-0.39264908,1.6256629,-0.002443461,-0.032986723,0.0,TREMOR,557862465c0e
1776917491952,2025716402918660,-9.773131,-0.39743748,1.6112977,6.1086525E-4,-0.029321533,0.0030543262,TREMOR,557862465c0e
1776917491960,2025716410914974,-9.773131,-0.39504328,1.6256629,0.0,-0.02565634,-0.002443461,TREMOR,557862465c0e
1776917491968,2025716418908749,-9.773131,-0.39504328,1.6065093,-6.1086525E-4,-0.015882496,6.1086525E-4,TREMOR,557862465c0e
1776917491976,2025716426905986,-9.78989,-0.40940848,1.6065093,-6.1086525E-4,-0.004276057,-6.1086525E-4,TREMOR,557862465c0e
1776917491984,2025716434901684,-9.78989,-0.40462008,1.5969325,-6.1086525E-4,0.0018325958,0.0,TREMOR,557862465c0e
1776917491992,2025716442925998,-9.782708,-0.39504328,1.5993267,-6.1086525E-4,0.004276057,0.0012217305,TREMOR,557862465c0e
1776917492000,2025716450923619,-9.775525,-0.39504328,1.5921441,0.0,0.009162978,-0.0012217305,TREMOR,557862465c0e
1776917492008,2025716458918625,-9.785102,-0.40701428,1.6017209,0.0,0.01038471,0.0,TREMOR,557862465c0e
1776917492016,2025716466915939,-9.799467,-0.40222588,1.5825673,0.0,0.01038471,-6.1086525E-4,TREMOR,557862465c0e
1776917492024,2025716474908560,-9.770737,-0.3854665,1.6017209,0.0018325958,0.01038471,-6.1086525E-4,TREMOR,557862465c0e
1776917492032,2025716482904566,-9.773131,-0.39983168,1.5873557,6.1086525E-4,0.014049901,0.0,TREMOR,557862465c0e
1776917492040,2025716490899342,-9.785102,-0.40940848,1.5801731,0.0,0.013439035,-6.1086525E-4,TREMOR,557862465c0e
1776917492048,2025716498925501,-9.763555,-0.39743748,1.5753847,6.1086525E-4,0.016493361,6.1086525E-4,TREMOR,557862465c0e
1776917492056,2025716506922354,-9.782708,-0.40222588,1.5729905,0.0,0.017715093,-0.0012217305,TREMOR,557862465c0e
1776917492064,2025716514917437,-9.792285,-0.39983168,1.553837,0.0,0.021380283,0.0,TREMOR,557862465c0e
1776917492072,2025716522914058,-9.77792,-0.40222588,1.5394717,6.1086525E-4,0.017104227,0.0,TREMOR,557862465c0e
1776917492080,2025716530910141,-9.7803135,-0.39264908,1.5466543,0.0012217305,0.01160644,6.1086525E-4,TREMOR,557862465c0e
1776917492088,2025716538905532,-9.773131,-0.39983168,1.5610195,0.0012217305,0.007330383,0.0018325958,TREMOR,557862465c0e
1776917492096,2025716546902384,-9.775525,-0.40462008,1.5610195,0.0,0.004886922,0.0,TREMOR,557862465c0e
1776917492104,2025716554926697,-9.775525,-0.39504328,1.5562311,0.0,0.002443461,0.0,TREMOR,557862465c0e
1776917492112,2025716562921550,-9.770737,-0.39504328,1.5490485,-6.1086525E-4,-6.1086525E-4,0.0,TREMOR,557862465c0e
1776917492120,2025716570916633,-9.782708,-0.41180268,1.5825673,6.1086525E-4,-0.0018325958,0.0018325958,TREMOR,557862465c0e
1776917492128,2025716578912254,-9.797073,-0.3854665,1.5514427,0.0012217305,-0.004276057,0.0012217305,TREMOR,557862465c0e
1776917492136,2025716586910414,-9.782708,-0.39025488,1.5682021,0.0012217305,-0.0036651916,0.0012217305,TREMOR,557862465c0e
1776917492144,2025716594905189,-9.77792,-0.40222588,1.5562311,0.0,-0.004276057,0.002443461,TREMOR,557862465c0e
1776917492152,2025716602930195,-9.768343,-0.3878607,1.5586253,6.1086525E-4,-0.005497787,0.0018325958,TREMOR,557862465c0e
1776917492160,2025716610925816,-9.775525,-0.3854665,1.553837,6.1086525E-4,-0.008552114,6.1086525E-4,TREMOR,557862465c0e
1776917492168,2025716618921822,-9.7803135,-0.38067806,1.5562311,6.1086525E-4,-0.010995574,0.0012217305,TREMOR,557862465c0e
1776917492176,2025716626918521,-9.758766,-0.3854665,1.5825673,0.0,-0.01038471,0.0012217305,TREMOR,557862465c0e
1776917492184,2025716634911758,-9.765948,-0.39504328,1.5801731,0.0,-0.0061086523,6.1086525E-4,TREMOR,557862465c0e
1776917492192,2025716642909225,-9.782708,-0.39264908,1.5753847,-6.1086525E-4,-0.005497787,0.0,TREMOR,557862465c0e
1776917492200,2025716650905616,-9.7803135,-0.40222588,1.5705963,-0.0012217305,-0.0018325958,-0.0012217305,TREMOR,557862465c0e
1776917492208,2025716658930237,-9.782708,-0.39983168,1.5753847,-0.0012217305,0.0,-0.0012217305,TREMOR,557862465c0e
1776917492216,2025716666926243,-9.7803135,-0.3854665,1.5753847,-0.0018325958,0.0018325958,-0.0012217305,TREMOR,557862465c0e
1776917492224,2025716674922172,-9.7803135,-0.39743748,1.5873557,-0.0030543262,0.005497787,-0.0018325958,TREMOR,557862465c0e
1776917492232,2025716682916101,-9.792285,-0.40940848,1.5753847,-0.002443461,0.0030543262,-0.0012217305,TREMOR,557862465c0e
1776917492240,2025716690912723,-9.801862,-0.40222588,1.5562311,-0.0012217305,-0.0018325958,0.0018325958,TREMOR,557862465c0e
1776917492248,2025716698907498,-9.775525,-0.39504328,1.5705963,6.1086525E-4,-0.0061086523,0.0,TREMOR,557862465c0e
1776917492256,2025716706903196,-9.768343,-0.40222588,1.5801731,-6.1086525E-4,-0.004886922,-6.1086525E-4,TREMOR,557862465c0e
1776917492264,2025716714932356,-9.782708,-0.3878607,1.5849615,6.1086525E-4,-0.0061086523,-0.002443461,TREMOR,557862465c0e
1776917492272,2025716722925055,-9.76116,-0.39025488,1.5993267,6.1086525E-4,-0.002443461,-0.0012217305,TREMOR,557862465c0e
1776917492280,2025716730921984,-9.773131,-0.40222588,1.5729905,6.1086525E-4,0.002443461,6.1086525E-4,TREMOR,557862465c0e
1776917492288,2025716738917297,-9.7803135,-0.39264908,1.5825673,6.1086525E-4,0.004886922,0.0018325958,TREMOR,557862465c0e
1776917492296,2025716746914303,-9.773131,-0.41180268,1.5825673,0.0,0.009162978,-0.0018325958,TREMOR,557862465c0e
1776917492304,2025716754909386,-9.770737,-0.39504328,1.5705963,-0.0018325958,0.008552114,-0.0012217305,TREMOR,557862465c0e
1776917492312,2025716762903162,-9.785102,-0.40222588,1.5586253,-6.1086525E-4,0.009773844,6.1086525E-4,TREMOR,557862465c0e
1776917492320,2025716770930321,-9.765948,-0.40940848,1.5514427,6.1086525E-4,0.009162978,0.0,TREMOR,557862465c0e
1776917492328,2025716778924712,-9.768343,-0.39983168,1.5490485,-6.1086525E-4,0.0067195175,-6.1086525E-4,TREMOR,557862465c0e
1776917492336,2025716786920718,-9.77792,-0.3878607,1.5442601,-6.1086525E-4,0.0036651916,-6.1086525E-4,TREMOR,557862465c0e
1776917492344,2025716794917109,-9.78989,-0.39983168,1.5442601,-6.1086525E-4,0.004276057,-0.002443461,TREMOR,557862465c0e
1776917492352,2025716802912115,-9.782708,-0.39983168,1.5466543,0.0012217305,0.0018325958,0.0012217305,TREMOR,557862465c0e
1776917492360,2025716810908428,-9.785102,-0.40701428,1.5634137,-6.1086525E-4,0.0018325958,-6.1086525E-4,TREMOR,557862465c0e
1776917492368,2025716818902050,-9.768343,-0.40222588,1.541866,6.1086525E-4,0.002443461,0.0,TREMOR,557862465c0e
1776917492376,2025716826930287,-9.77792,-0.39983168,1.5658079,6.1086525E-4,0.0012217305,-6.1086525E-4,TREMOR,557862465c0e
1776917492384,2025716834926062,-9.787497,-0.39025488,1.5394717,-6.1086525E-4,0.0,6.1086525E-4,TREMOR,557862465c0e
1776917492392,2025716842920453,-9.76116,-0.39504328,1.5466543,0.0012217305,-0.0018325958,0.0012217305,TREMOR,557862465c0e
1776917492400,2025716850917459,-9.775525,-0.40701428,1.553837,6.1086525E-4,-0.004276057,-0.0012217305,TREMOR,557862465c0e
1776917492408,2025716858912772,-9.785102,-0.39983168,1.5705963,-6.1086525E-4,-0.007941248,-6.1086525E-4,TREMOR,557862465c0e
1776917492416,2025716866909471,-9.787497,-0.39504328,1.5753847,0.0,-0.009162978,0.0,TREMOR,557862465c0e
1776917492424,2025716874903861,-9.785102,-0.39743748,1.5610195,0.0,-0.010995574,6.1086525E-4,TREMOR,557862465c0e
1776917492432,2025716882928483,-9.7803135,-0.39504328,1.5801731,6.1086525E-4,-0.01038471,-6.1086525E-4,TREMOR,557862465c0e
1776917492440,2025716890925489,-9.7803135,-0.39025488,1.5610195,-0.0018325958,-0.009773844,-0.0012217305,TREMOR,557862465c0e
1776917492448,2025716898920187,-9.765948,-0.40222588,1.5801731,-0.0012217305,-0.0067195175,-0.0012217305,TREMOR,557862465c0e
1776917492456,2025716906917731,-9.77792,-0.4141969,1.5825673,-6.1086525E-4,-0.004276057,-6.1086525E-4,TREMOR,557862465c0e
1776917492464,2025716914912891,-9.787497,-0.39983168,1.5682021,-0.0012217305,6.1086525E-4,-6.1086525E-4,TREMOR,557862465c0e
1776917492472,2025716922906974,-9.77792,-0.39264908,1.5777789,-0.002443461,0.004886922,6.1086525E-4,TREMOR,557862465c0e
1776917492480,2025716930901750,-9.7803135,-0.39743748,1.5777789,0.0,0.0036651916,-0.0012217305,TREMOR,557862465c0e
1776917492488,2025716938928525,-9.768343,-0.39743748,1.5658079,-0.0012217305,0.004886922,6.1086525E-4,TREMOR,557862465c0e
1776917492496,2025716946923915,-9.768343,-0.39743748,1.5682021,-6.1086525E-4,0.0036651916,6.1086525E-4,TREMOR,557862465c0e
1776917492504,2025716954921229,-9.775525,-0.3854665,1.5658079,-0.0018325958,0.005497787,-6.1086525E-4,TREMOR,557862465c0e
1776917492512,2025716962915697,-9.775525,-0.39743748,1.5729905,-0.0018325958,0.009162978,0.0,TREMOR,557862465c0e
1776917492520,2025716970912318,-9.785102,-0.3854665,1.553837,-0.0012217305,0.007941248,-0.0012217305,TREMOR,557862465c0e
1776917492528,2025716978909170,-9.792285,-0.39743748,1.5658079,-0.0012217305,0.0067195175,0.0,TREMOR,557862465c0e
1776917492536,2025716986903022,-9.768343,-0.3878607,1.5729905,-0.0018325958,0.008552114,0.0,TREMOR,557862465c0e
1776917492544,2025716994929490,-9.801862,-0.3878607,1.5634137,-0.0018325958,0.009773844,-0.0018325958,TREMOR,557862465c0e
1776917492552,2025717002925496,-9.794679,-0.39025488,1.553837,-0.0018325958,0.01038471,-0.002443461,TREMOR,557862465c0e
1776917492560,2025717010920656,-9.765948,-0.39264908,1.5658079,-0.0030543262,0.014049901,-0.0012217305,TREMOR,557862465c0e
1776917492568,2025717018916047,-9.763555,-0.37828386,1.5682021,-0.0030543262,0.017715093,-6.1086525E-4,TREMOR,557862465c0e
1776917492576,2025717026911437,-9.773131,-0.39743748,1.5562311,-0.0036651916,0.02076942,-0.002443461,TREMOR,557862465c0e
1776917492584,2025717034906443,-9.787497,-0.39025488,1.5275006,-0.0036651916,0.018325957,-0.0018325958,TREMOR,557862465c0e
1776917492592,2025717042903757,-9.7803135,-0.40940848,1.5370775,-0.002443461,0.01282817,-0.0012217305,TREMOR,557862465c0e
1776917492600,2025717050930532,-9.775525,-0.41180268,1.541866,-0.0012217305,0.007330383,6.1086525E-4,TREMOR,557862465c0e
1776917492608,2025717058925230,-9.765948,-0.39264908,1.5490485,0.0,0.0012217305,-6.1086525E-4,TREMOR,557862465c0e
1776917492616,2025717066920313,-9.77792,-0.39264908,1.5610195,-6.1086525E-4,0.0,-0.002443461,TREMOR,557862465c0e
1776917492624,2025717074916319,-9.782708,-0.39983168,1.5490485,-0.0036651916,0.0036651916,-0.0012217305,TREMOR,557862465c0e
1776917492632,2025717082911710,-9.773131,-0.39983168,1.5562311,-0.0018325958,0.004276057,-6.1086525E-4,TREMOR,557862465c0e
1776917492640,2025717090908331,-9.770737,-0.4165911,1.5562311,-0.0030543262,0.0067195175,-0.0012217305,TREMOR,557862465c0e
1776917492648,2025717098902876,-9.787497,-0.39025488,1.5610195,-0.0018325958,0.0061086523,-6.1086525E-4,TREMOR,557862465c0e
1776917492656,2025717106929036,-9.794679,-0.40701428,1.541866,-0.0018325958,0.007330383,-0.0012217305,TREMOR,557862465c0e
1776917492664,2025717114923196,-9.794679,-0.40222588,1.541866,-6.1086525E-4,0.0030543262,-0.0012217305,TREMOR,557862465c0e
1776917492672,2025717122919817,-9.787497,-0.39025488,1.5610195,-0.0012217305,0.0030543262,-0.002443461,TREMOR,557862465c0e
1776917492680,2025717130916054,-9.77792,-0.40222588,1.5705963,-6.1086525E-4,0.0030543262,-6.1086525E-4,TREMOR,557862465c0e
1776917492688,2025717138912752,-9.763555,-0.39504328,1.5753847,-6.1086525E-4,0.0036651916,-6.1086525E-4,TREMOR,557862465c0e
1776917492696,2025717146907220,-9.770737,-0.39983168,1.5705963,-0.0012217305,0.008552114,-0.0012217305,TREMOR,557862465c0e
1776917492704,2025717154903226,-9.770737,-0.40222588,1.5705963,0.0,0.01282817,6.1086525E-4,TREMOR,557862465c0e
1776917492712,2025717162929001,-9.7803135,-0.39025488,1.5442601,-6.1086525E-4,0.016493361,0.002443461,TREMOR,557862465c0e
1776917492720,2025717170924469,-9.775525,-0.39504328,1.532289,0.0,0.01160644,0.0012217305,TREMOR,557862465c0e
1776917492728,2025717178920398,-9.77792,-0.3854665,1.520318,6.1086525E-4,0.01160644,6.1086525E-4,TREMOR,557862465c0e
1776917492736,2025717186914019,-9.76116,-0.39025488,1.5466543,-0.0012217305,0.010995574,6.1086525E-4,TREMOR,557862465c0e
1776917492744,2025717194911487,-9.7803135,-0.40940848,1.520318,-0.0012217305,0.012217305,6.1086525E-4,TREMOR,557862465c0e
1776917492752,2025717202906570,-9.770737,-0.41180268,1.5251064,0.0,0.009162978,0.0,TREMOR,557862465c0e
1776917492760,2025717210902883,-9.7803135,-0.40940848,1.5131354,0.0,0.007330383,-0.0018325958,TREMOR,557862465c0e
1776917492768,2025717218930966,-9.785102,-0.40222588,1.5251064,-0.0012217305,0.004886922,-6.1086525E-4,TREMOR,557862465c0e
1776917492776,2025717226923588,-9.785102,-0.39983168,1.5346833,-0.0018325958,6.1086525E-4,-6.1086525E-4,TREMOR,557862465c0e
1776917492784,2025717234918671,-9.792285,-0.39983168,1.5107412,-0.0018325958,-0.005497787,-6.1086525E-4,TREMOR,557862465c0e
1776917492792,2025717242914677,-9.782708,-0.38307226,1.5394717,-6.1086525E-4,-0.010995574,0.0,TREMOR,557862465c0e
1776917492800,2025717250910913,-9.785102,-0.40462008,1.5298948,-6.1086525E-4,-0.015271631,-6.1086525E-4,TREMOR,557862465c0e
1776917492808,2025717258907612,-9.799467,-0.40222588,1.5370775,0.0,-0.019547688,-6.1086525E-4,TREMOR,557862465c0e
1776917492816,2025717266900848,-9.782708,-0.3854665,1.5442601,0.0018325958,-0.02565634,-6.1086525E-4,TREMOR,557862465c0e
1776917492824,2025717274927316,-9.78989,-0.3878607,1.5682021,0.0012217305,-0.02687807,6.1086525E-4,TREMOR,557862465c0e
1776917492832,2025717282925168,-9.775525,-0.38307226,1.5801731,0.0,-0.02321288,-0.0012217305,TREMOR,557862465c0e
1776917492840,2025717290920251,-9.765948,-0.3878607,1.5777789,-0.002443461,-0.015271631,6.1086525E-4,TREMOR,557862465c0e
1776917492848,2025717298914949,-9.77792,-0.39504328,1.5801731,-0.002443461,-0.005497787,6.1086525E-4,TREMOR,557862465c0e
1776917492856,2025717306909417,-9.782708,-0.41180268,1.5682021,-0.0018325958,0.0036651916,-6.1086525E-4,TREMOR,557862465c0e
1776917492864,2025717314906038,-9.80665,-0.39264908,1.5729905,-6.1086525E-4,0.015271631,-6.1086525E-4,TREMOR,557862465c0e
1776917492872,2025717322902044,-9.78989,-0.40462008,1.5658079,-6.1086525E-4,0.02321288,-0.0018325958,TREMOR,557862465c0e
1776917492880,2025717330926743,-9.773131,-0.39983168,1.5753847,-6.1086525E-4,0.026267206,0.0,TREMOR,557862465c0e
1776917492888,2025717338923903,-9.782708,-0.3854665,1.5897499,6.1086525E-4,0.030543262,-6.1086525E-4,TREMOR,557862465c0e
1776917492896,2025717346918986,-9.799467,-0.39504328,1.5634137,0.0018325958,0.031154128,-6.1086525E-4,TREMOR,557862465c0e
1776917492904,2025717354914069,-9.8042555,-0.39983168,1.5801731,0.004886922,0.034208454,-6.1086525E-4,TREMOR,557862465c0e
1776917492912,2025717362909459,-9.809045,-0.40940848,1.5777789,0.0061086523,0.03604105,-6.1086525E-4,TREMOR,557862465c0e
1776917492920,2025717370906773,-9.821015,-0.39504328,1.5562311,0.007330383,0.03970624,0.0018325958,TREMOR,557862465c0e
1776917492928,2025717378902471,-9.80665,-0.40222588,1.532289,0.008552114,0.03970624,6.1086525E-4,TREMOR,557862465c0e
1776917492936,2025717386928323,-9.792285,-0.40462008,1.508347,0.009773844,0.03848451,0.002443461,TREMOR,557862465c0e
1776917492944,2025717394924560,-9.782708,-0.39264908,1.4676456,0.008552114,0.036651913,0.004886922,TREMOR,557862465c0e
1776917492952,2025717402917874,-9.775525,-0.37588966,1.448492,0.007941248,0.03604105,0.004276057,TREMOR,557862465c0e
1776917492960,2025717410915034,-9.7563715,-0.39743748,1.4556746,0.007330383,0.03481932,0.004276057,TREMOR,557862465c0e
1776917492968,2025717418911347,-9.737218,-0.38067806,1.4556746,0.002443461,0.03481932,0.0012217305,TREMOR,557862465c0e
1776917492976,2025717426905200,-9.765948,-0.39025488,1.4437037,0.0,0.03604105,0.0012217305,TREMOR,557862465c0e
1776917492984,2025717434901821,-9.773131,-0.39025488,1.4269443,6.1086525E-4,0.032986723,0.002443461,TREMOR,557862465c0e
1776917492992,2025717442928289,-9.742006,-0.3854665,1.4389153,0.0,0.02321288,6.1086525E-4,TREMOR,557862465c0e
1776917493000,2025717450923679,-9.768343,-0.39025488,1.4460979,-6.1086525E-4,0.012217305,-6.1086525E-4,TREMOR,557862465c0e
1776917493008,2025717458919070,-9.751583,-0.3878607,1.4628572,-0.002443461,0.0018325958,-6.1086525E-4,TREMOR,557862465c0e
1776917493016,2025717466914230,-9.77792,-0.39504328,1.4820108,-0.0036651916,-0.002443461,-6.1086525E-4,TREMOR,557862465c0e
1776917493024,2025717474908697,-9.785102,-0.38067806,1.4748282,-0.0036651916,-0.0067195175,-0.0012217305,TREMOR,557862465c0e
1776917493032,2025717482905857,-9.785102,-0.40222588,1.496376,-0.004276057,-0.009773844,-0.002443461,TREMOR,557862465c0e
1776917493040,2025717490899709,-9.782708,-0.3878607,1.4796166,-0.004886922,-0.01282817,-0.002443461,TREMOR,557862465c0e
1776917493048,2025717498928023,-9.775525,-0.39983168,1.4748282,-0.0030543262,-0.021380283,-0.0018325958,TREMOR,557862465c0e
1776917493056,2025717506923491,-9.7803135,-0.39264908,1.496376,-0.0036651916,-0.027488936,-0.0018325958,TREMOR,557862465c0e
1776917493064,2025717514918804,-9.763555,-0.39264908,1.5059528,-0.004886922,-0.029321533,-0.002443461,TREMOR,557862465c0e
1776917493072,2025717522913887,-9.768343,-0.37828386,1.5370775,-0.004886922,-0.023823744,-0.0012217305,TREMOR,557862465c0e
1776917493080,2025717530910201,-9.773131,-0.3878607,1.5346833,-0.0061086523,-0.009773844,-0.002443461,TREMOR,557862465c0e
1776917493088,2025717538905592,-9.785102,-0.39983168,1.5155296,-0.0061086523,-0.002443461,-0.004886922,TREMOR,557862465c0e
1776917493096,2025717546933059,-9.799467,-0.39504328,1.4987702,-0.005497787,-6.1086525E-4,-0.0036651916,TREMOR,557862465c0e
1776917493104,2025717554927757,-9.818622,-0.39983168,1.5107412,-0.0036651916,-0.004886922,-0.004886922,TREMOR,557862465c0e
1776917493112,2025717562922533,-9.8042555,-0.39025488,1.5394717,-0.0030543262,-0.013439035,-0.002443461,TREMOR,557862465c0e
1776917493120,2025717570920154,-9.797073,-0.39264908,1.5586253,-0.0036651916,-0.015271631,-0.002443461,TREMOR,557862465c0e
1776917493128,2025717578914006,-9.782708,-0.39504328,1.5514427,-0.0030543262,-0.012217305,0.0,TREMOR,557862465c0e
1776917493136,2025717586910012,-9.77792,-0.38307226,1.5370775,-0.0018325958,-0.007941248,-0.0018325958,TREMOR,557862465c0e
1776917493144,2025717594904095,-9.785102,-0.39504328,1.5370775,0.0,-0.005497787,-0.002443461,TREMOR,557862465c0e
1776917493152,2025717602899871,-9.775525,-0.38307226,1.5442601,-0.0012217305,0.0018325958,-0.0012217305,TREMOR,557862465c0e
1776917493160,2025717610926953,-9.782708,-0.40222588,1.5131354,-0.002443461,0.008552114,-0.0036651916,TREMOR,557862465c0e
1776917493168,2025717618922575,-9.7803135,-0.40940848,1.5227122,-0.0030543262,0.015882496,-0.0012217305,TREMOR,557862465c0e
1776917493176,2025717626918889,-9.782708,-0.38067806,1.5179238,-0.0018325958,0.023823744,-6.1086525E-4,TREMOR,557862465c0e
1776917493184,2025717634914587,-9.775525,-0.39504328,1.496376,-0.0012217305,0.027488936,-6.1086525E-4,TREMOR,557862465c0e
1776917493192,2025717642910054,-9.770737,-0.40701428,1.4652514,6.1086525E-4,0.021991149,0.0,TREMOR,557862465c0e
1776917493200,2025717650906676,-9.785102,-0.39743748,1.4891934,-6.1086525E-4,0.02076942,6.1086525E-4,TREMOR,557862465c0e
1776917493208,2025717658932451,-9.809045,-0.38307226,1.4796166,-0.0018325958,0.017104227,0.0,TREMOR,557862465c0e
1776917493216,2025717666925380,-9.751583,-0.41180268,1.5011644,-0.0012217305,0.017715093,0.0012217305,TREMOR,557862465c0e
1776917493224,2025717674923232,-9.799467,-0.39983168,1.4891934,-0.0018325958,0.016493361,-0.0030543262,TREMOR,557862465c0e
1776917493232,2025717682918700,-9.787497,-0.38307226,1.4820108,-0.002443461,0.012217305,0.0,TREMOR,557862465c0e
1776917493240,2025717690916244,-9.76116,-0.39264908,1.484405,-0.002443461,0.01038471,-6.1086525E-4,TREMOR,557862465c0e
1776917493248,2025717698909712,-9.775525,-0.39743748,1.4796166,-0.0018325958,0.004886922,-0.0012217305,TREMOR,557862465c0e
1776917493256,2025717706907256,-9.787497,-0.39025488,1.484405,-0.002443461,0.0012217305,-0.002443461,TREMOR,557862465c0e
1776917493264,2025717714931878,-9.792285,-0.39504328,1.4939818,-0.0018325958,-0.0030543262,-0.0012217305,TREMOR,557862465c0e
1776917493272,2025717722926038,-9.775525,-0.39504328,1.4987702,-0.0012217305,-0.01038471,-0.0012217305,TREMOR,557862465c0e
1776917493280,2025717730921121,-9.792285,-0.39743748,1.5011644,-0.002443461,-0.012217305,-0.0036651916,TREMOR,557862465c0e
1776917493288,2025717738919357,-9.809045,-0.39504328,1.508347,0.0,-0.017104227,-0.0036651916,TREMOR,557862465c0e
1776917493296,2025717746912287,-9.794679,-0.40462008,1.508347,0.0,-0.02687807,-0.002443461,TREMOR,557862465c0e
1776917493304,2025717754908831,-9.768343,-0.40701428,1.5059528,-6.1086525E-4,-0.027488936,0.0012217305,TREMOR,557862465c0e
1776917493312,2025717762906145,-9.770737,-0.41180268,1.5442601,0.0,-0.02565634,-6.1086525E-4,TREMOR,557862465c0e
1776917493320,2025717770931074,-9.76116,-0.3878607,1.5562311,-6.1086525E-4,-0.015271631,6.1086525E-4,TREMOR,557862465c0e
1776917493328,2025717778927003,-9.775525,-0.4141969,1.5298948,-0.002443461,0.0018325958,-0.0018325958,TREMOR,557862465c0e
1776917493336,2025717786920547,-9.7803135,-0.39983168,1.5059528,-0.0012217305,0.01160644,-0.0012217305,TREMOR,557862465c0e
1776917493344,2025717794916553,-9.794679,-0.40462008,1.4820108,-6.1086525E-4,0.01282817,-0.0012217305,TREMOR,557862465c0e
1776917493352,2025717802915406,-9.801862,-0.39983168,1.4652514,0.0,0.004276057,-0.0012217305,TREMOR,557862465c0e
1776917493360,2025717810907719,-9.799467,-0.38067806,1.5131354,0.0,-0.01282817,-0.0018325958,TREMOR,557862465c0e
1776917493368,2025717818903341,-9.811439,-0.39504328,1.5298948,0.0,-0.018325957,0.0,TREMOR,557862465c0e
1776917493376,2025717826929501,-9.782708,-0.40462008,1.5346833,0.0,-0.018936822,-6.1086525E-4,TREMOR,557862465c0e
1776917493384,2025717834925584,-9.782708,-0.39504328,1.520318,6.1086525E-4,-0.018936822,-0.0018325958,TREMOR,557862465c0e
1776917493392,2025717842921205,-9.7803135,-0.3878607,1.5298948,0.0,-0.014660766,-0.002443461,TREMOR,557862465c0e
1776917493400,2025717850916288,-9.8042555,-0.39264908,1.5442601,-0.0012217305,-0.0012217305,-0.0012217305,TREMOR,557862465c0e
1776917493408,2025717858913909,-9.775525,-0.40222588,1.5346833,-0.0030543262,0.010995574,-0.002443461,TREMOR,557862465c0e
1776917493416,2025717866909531,-9.78989,-0.40701428,1.5179238,-0.0036651916,0.018936822,-0.0018325958,TREMOR,557862465c0e
1776917493424,2025717874903767,-9.792285,-0.39743748,1.508347,-0.0030543262,0.023823744,-0.0012217305,TREMOR,557862465c0e
1776917493432,2025717882899158,-9.7803135,-0.41180268,1.4891934,-0.0012217305,0.018325957,-6.1086525E-4,TREMOR,557862465c0e
1776917493440,2025717890926241,-9.7803135,-0.39025488,1.4891934,-0.0012217305,0.013439035,-6.1086525E-4,TREMOR,557862465c0e
1776917493448,2025717898921862,-9.768343,-0.39743748,1.5107412,-0.0018325958,0.007330383,-0.0018325958,TREMOR,557862465c0e
1776917493456,2025717906918484,-9.763555,-0.3878607,1.5107412,-0.0018325958,0.007330383,0.0,TREMOR,557862465c0e
1776917493464,2025717914912721,-9.768343,-0.3878607,1.5011644,-0.002443461,0.01038471,0.0012217305,TREMOR,557862465c0e
1776917493472,2025717922907419,-9.770737,-0.40222588,1.5011644,-0.0012217305,0.008552114,-0.0018325958,TREMOR,557862465c0e
1776917493480,2025717930904425,-9.787497,-0.39983168,1.4939818,-0.0018325958,0.0067195175,0.0,TREMOR,557862465c0e
1776917493488,2025717938930585,-9.785102,-0.39025488,1.5011644,-0.0012217305,0.0018325958,-6.1086525E-4,TREMOR,557862465c0e
1776917493496,2025717946927514,-9.78989,-0.4189853,1.4772224,-0.0012217305,-0.0012217305,-0.0012217305,TREMOR,557862465c0e
1776917493504,2025717954922597,-9.794679,-0.39025488,1.4796166,-6.1086525E-4,-0.017104227,-0.0018325958,TREMOR,557862465c0e
1776917493512,2025717962917295,-9.785102,-0.3854665,1.508347,-0.0018325958,-0.02443461,-6.1086525E-4,TREMOR,557862465c0e
1776917493520,2025717970912763,-9.770737,-0.41180268,1.5275006,-0.0012217305,-0.028710667,0.0,TREMOR,557862465c0e
1776917493528,2025717978909307,-9.7803135,-0.40701428,1.5442601,-0.0012217305,-0.025045475,-0.0012217305,TREMOR,557862465c0e
1776917493536,2025717986904159,-9.811439,-0.3854665,1.5251064,-0.002443461,-0.014049901,-0.0018325958,TREMOR,557862465c0e
1776917493544,2025717994899550,-9.785102,-0.40222588,1.5251064,-0.0018325958,-0.0061086523,-0.0012217305,TREMOR,557862465c0e
1776917493552,2025718002926556,-9.77792,-0.39504328,1.5059528,-0.002443461,-6.1086525E-4,6.1086525E-4,TREMOR,557862465c0e
1776917493560,2025718010921639,-9.77792,-0.37828386,1.5394717,-0.002443461,-0.0012217305,-0.0030543262,TREMOR,557862465c0e
1776917493568,2025718018916799,-9.785102,-0.39743748,1.5251064,-0.0018325958,-0.0018325958,-0.0018325958,TREMOR,557862465c0e
1776917493576,2025718026914036,-9.782708,-0.39743748,1.5179238,-0.0036651916,-0.0036651916,-0.004276057,TREMOR,557862465c0e
1776917493584,2025718034908426,-9.787497,-0.40222588,1.5107412,-0.0036651916,-0.005497787,-0.0030543262,TREMOR,557862465c0e
1776917493592,2025718042902355,-9.775525,-0.39264908,1.5227122,-0.0018325958,-0.005497787,-0.004276057,TREMOR,557862465c0e
1776917493600,2025718050930285,-9.775525,-0.40462008,1.541866,-0.0030543262,-6.1086525E-4,0.0,TREMOR,557862465c0e
1776917493608,2025718058926291,-9.7803135,-0.41180268,1.5514427,-0.004276057,0.01282817,-0.002443461,TREMOR,557862465c0e
1776917493616,2025718066921450,-9.78989,-0.40940848,1.5490485,-0.0036651916,0.021991149,-0.0030543262,TREMOR,557862465c0e
1776917493624,2025718074915841,-9.787497,-0.39743748,1.5275006,-0.0030543262,0.025045475,-0.0036651916,TREMOR,557862465c0e
1776917493632,2025718082912847,-9.813833,-0.41180268,1.4939818,-0.0030543262,0.028099801,-0.002443461,TREMOR,557862465c0e
1776917493640,2025718090908238,-9.794679,-0.41180268,1.4939818,-0.0036651916,0.02565634,-0.004886922,TREMOR,557862465c0e
1776917493648,2025718098905167,-9.775525,-0.39025488,1.4939818,-0.0030543262,0.017715093,-0.0030543262,TREMOR,557862465c0e
1776917493656,2025718106928557,-9.765948,-0.39983168,1.5155296,-0.002443461,0.01282817,-0.0012217305,TREMOR,557862465c0e
1776917493664,2025718114926333,-9.751583,-0.41180268,1.508347,-0.002443461,0.01282817,-6.1086525E-4,TREMOR,557862465c0e
1776917493672,2025718122921185,-9.763555,-0.40222588,1.5011644,-0.0018325958,0.014049901,-0.0012217305,TREMOR,557862465c0e
1776917493680,2025718130915575,-9.775525,-0.3878607,1.4891934,-0.0030543262,0.014049901,-0.0012217305,TREMOR,557862465c0e
1776917493688,2025718138912505,-9.782708,-0.39504328,1.484405,-0.0018325958,0.012217305,-0.0036651916,TREMOR,557862465c0e
1776917493696,2025718146906664,-9.78989,-0.39743748,1.4987702,-0.0018325958,0.002443461,6.1086525E-4,TREMOR,557862465c0e
1776917493704,2025718154903978,-9.794679,-0.40940848,1.508347,-0.0012217305,-0.0061086523,-0.0012217305,TREMOR,557862465c0e
1776917493712,2025718162927600,-9.792285,-0.3854665,1.5227122,-6.1086525E-4,-0.007941248,0.0,TREMOR,557862465c0e
1776917493720,2025718170926067,-9.775525,-0.40462008,1.5179238,-0.0018325958,-0.002443461,6.1086525E-4,TREMOR,557862465c0e
1776917493728,2025718178920919,-9.797073,-0.40940848,1.4867992,-6.1086525E-4,-0.004886922,-6.1086525E-4,TREMOR,557862465c0e
1776917493736,2025718186918464,-9.78989,-0.39264908,1.472434,6.1086525E-4,-0.019547688,6.1086525E-4,TREMOR,557862465c0e
1776917493744,2025718194912931,-9.758766,-0.40462008,1.5059528,0.0012217305,-0.029321533,0.0,TREMOR,557862465c0e
1776917493752,2025718202906168,-9.7803135,-0.41180268,1.5370775,6.1086525E-4,-0.030543262,-0.0012217305,TREMOR,557862465c0e
1776917493760,2025718210903020,-9.775525,-0.39983168,1.541866,-0.0012217305,-0.02687807,-6.1086525E-4,TREMOR,557862465c0e
1776917493768,2025718218930411,-9.773131,-0.39025488,1.5298948,-0.0018325958,-0.018325957,-6.1086525E-4,TREMOR,557862465c0e
1776917493776,2025718226926186,-9.785102,-0.41180268,1.532289,0.0,-0.01038471,0.0,TREMOR,557862465c0e
1776917493784,2025718234920346,-9.77792,-0.39743748,1.5227122,-6.1086525E-4,-0.0012217305,-0.0012217305,TREMOR,557862465c0e
1776917493792,2025718242916967,-9.78989,-0.38067806,1.5298948,-0.0012217305,6.1086525E-4,-0.0030543262,TREMOR,557862465c0e
1776917493800,2025718250910204,-9.801862,-0.40462008,1.532289,-0.0012217305,0.0061086523,-0.0018325958,TREMOR,557862465c0e
1776917493808,2025718258909518,-9.787497,-0.39743748,1.5370775,-0.0012217305,0.007941248,-0.002443461,TREMOR,557862465c0e
1776917493816,2025718266934216,-9.768343,-0.39743748,1.5131354,-0.0012217305,0.008552114,-6.1086525E-4,TREMOR,557862465c0e
1776917493824,2025718274928915,-9.77792,-0.40701428,1.5275006,-0.0012217305,0.005497787,6.1086525E-4,TREMOR,557862465c0e
1776917493832,2025718282924998,-9.785102,-0.39743748,1.5107412,0.0,0.0018325958,-6.1086525E-4,TREMOR,557862465c0e
1776917493840,2025718290919465,-9.782708,-0.39504328,1.508347,0.0,0.0,-6.1086525E-4,TREMOR,557862465c0e
1776917493848,2025718298917625,-9.792285,-0.40701428,1.5035586,0.0,-0.0061086523,0.0,TREMOR,557862465c0e
1776917493856,2025718306911400,-9.7803135,-0.39743748,1.5131354,0.0012217305,-0.005497787,-0.0012217305,TREMOR,557862465c0e
1776917493864,2025718314906252,-9.7563715,-0.39983168,1.5227122,-0.0012217305,-0.0061086523,-0.0018325958,TREMOR,557862465c0e
1776917493872,2025718322932643,-9.787497,-0.38307226,1.5155296,-0.0012217305,-0.002443461,-0.0012217305,TREMOR,557862465c0e
1776917493880,2025718330929572,-9.787497,-0.39504328,1.5155296,-0.0012217305,0.0030543262,-0.0018325958,TREMOR,557862465c0e
1776917493888,2025718338924117,-9.7803135,-0.40701428,1.5059528,-0.0030543262,0.007330383,-6.1086525E-4,TREMOR,557862465c0e
1776917493896,2025718346920123,-9.797073,-0.40462008,1.5035586,-0.002443461,0.0067195175,-6.1086525E-4,TREMOR,557862465c0e
1776917493904,2025718354916744,-9.77792,-0.40701428,1.5107412,-0.0012217305,0.0018325958,-0.0018325958,TREMOR,557862465c0e
1776917493912,2025718362910288,-9.792285,-0.40222588,1.5107412,-0.0018325958,-0.005497787,0.0012217305,TREMOR,557862465c0e
1776917493920,2025718370906833,-9.765948,-0.39504328,1.5107412,-6.1086525E-4,-0.012217305,0.0012217305,TREMOR,557862465c0e
1776917493928,2025718378903224,-9.794679,-0.39983168,1.5131354,-0.0030543262,-0.017715093,0.0012217305,TREMOR,557862465c0e
1776917493936,2025718386931153,-9.7803135,-0.3854665,1.5394717,0.0,-0.021991149,-0.0030543262,TREMOR,557862465c0e
1776917493944,2025718394924389,-9.775525,-0.40462008,1.5298948,0.0,-0.017104227,0.0,TREMOR,557862465c0e
1776917493952,2025718402919165,-9.775525,-0.39025488,1.5514427,-6.1086525E-4,-0.01160644,-0.0012217305,TREMOR,557862465c0e
1776917493960,2025718410914248,-9.794679,-0.40462008,1.5251064,-0.002443461,-0.009162978,-0.0018325958,TREMOR,557862465c0e
1776917493968,2025718418911484,-9.787497,-0.39504328,1.5298948,0.0018325958,-0.0067195175,-0.0018325958,TREMOR,557862465c0e
1776917493976,2025718426905644,-9.797073,-0.4141969,1.5490485,6.1086525E-4,-0.007330383,6.1086525E-4,TREMOR,557862465c0e
1776917493984,2025718434933650,-9.78989,-0.40462008,1.5634137,6.1086525E-4,-0.007330383,0.0,TREMOR,557862465c0e
1776917493992,2025718442928195,-9.787497,-0.38307226,1.5849615,6.1086525E-4,6.1086525E-4,-6.1086525E-4,TREMOR,557862465c0e
1776917494000,2025718450923893,-9.785102,-0.39743748,1.5466543,-0.0018325958,0.010995574,0.0012217305,TREMOR,557862465c0e
1776917494008,2025718458920515,-9.785102,-0.39983168,1.5394717,0.0012217305,0.02076942,0.0018325958,TREMOR,557862465c0e
1776917494016,2025718466915521,-9.785102,-0.40940848,1.5155296,6.1086525E-4,0.025045475,0.0012217305,TREMOR,557862465c0e
1776917494024,2025718474909450,-9.8042555,-0.39983168,1.496376,0.0,0.026267206,-0.0018325958,TREMOR,557862465c0e
1776917494032,2025718482907225,-9.785102,-0.39504328,1.5035586,0.0018325958,0.022602014,0.0012217305,TREMOR,557862465c0e
1776917494040,2025718490902385,-9.794679,-0.40462008,1.508347,6.1086525E-4,0.015271631,0.0036651916,TREMOR,557862465c0e
1776917494048,2025718498929083,-9.763555,-0.39264908,1.5035586,0.002443461,0.012217305,0.0018325958,TREMOR,557862465c0e
1776917494056,2025718506922705,-9.782708,-0.40701428,1.5035586,6.1086525E-4,0.010995574,0.0018325958,TREMOR,557862465c0e
1776917494064,2025718514921787,-9.773131,-0.39504328,1.508347,0.0012217305,0.010995574,6.1086525E-4,TREMOR,557862465c0e
1776917494072,2025718522914332,-9.78989,-0.40462008,1.5059528,0.0018325958,0.004886922,0.0012217305,TREMOR,557862465c0e
1776917494080,2025718530909800,-9.770737,-0.3854665,1.5131354,6.1086525E-4,0.002443461,6.1086525E-4,TREMOR,557862465c0e
1776917494088,2025718538904882,-9.76116,-0.40222588,1.5011644,0.0012217305,6.1086525E-4,0.0018325958,TREMOR,557862465c0e
1776917494096,2025718546933504,-9.78989,-0.39264908,1.5131354,6.1086525E-4,-0.005497787,0.0018325958,TREMOR,557862465c0e
1776917494104,2025718554928202,-9.773131,-0.40222588,1.5394717,6.1086525E-4,-0.007941248,-0.002443461,TREMOR,557862465c0e
1776917494112,2025718562922670,-9.782708,-0.39025488,1.5179238,6.1086525E-4,-6.1086525E-4,6.1086525E-4,TREMOR,557862465c0e
1776917494120,2025718570919599,-9.792285,-0.39504328,1.5394717,0.0,0.004276057,-6.1086525E-4,TREMOR,557862465c0e
1776917494128,2025718578914143,-9.787497,-0.39025488,1.5298948,-0.0012217305,0.013439035,6.1086525E-4,TREMOR,557862465c0e
1776917494136,2025718586910380,-9.78989,-0.39504328,1.5155296,-0.0012217305,0.021380283,6.1086525E-4,TREMOR,557862465c0e
1776917494144,2025718594905540,-9.787497,-0.40222588,1.5059528,-0.0018325958,0.02565634,6.1086525E-4,TREMOR,557862465c0e
1776917494152,2025718602931009,-9.8042555,-0.39264908,1.5059528,-0.0012217305,0.02076942,0.0018325958,TREMOR,557862465c0e
1776917494160,2025718610928245,-9.809045,-0.3878607,1.496376,0.0,0.013439035,0.0018325958,TREMOR,557862465c0e
1776917494168,2025718618921559,-9.797073,-0.39264908,1.5155296,0.0,0.009773844,0.0030543262,TREMOR,557862465c0e
1776917494176,2025718626920257,-9.78989,-0.39264908,1.5179238,0.0,0.002443461,6.1086525E-4,TREMOR,557862465c0e
1776917494184,2025718634915340,-9.785102,-0.38307226,1.5179238,-6.1086525E-4,0.0,0.0012217305,TREMOR,557862465c0e
1776917494192,2025718642910808,-9.787497,-0.39504328,1.4939818,0.0012217305,-0.002443461,0.0018325958,TREMOR,557862465c0e
1776917494200,2025718650908352,-9.801862,-0.39025488,1.484405,0.0036651916,-0.014049901,0.0,TREMOR,557862465c0e
1776917494208,2025718658932281,-9.765948,-0.3878607,1.5035586,0.0036651916,-0.025045475,0.0012217305,TREMOR,557862465c0e
1776917494216,2025718666927749,-9.76116,-0.39025488,1.5227122,0.004886922,-0.032986723,0.0018325958,TREMOR,557862465c0e
1776917494224,2025718674922524,-9.758766,-0.40940848,1.5251064,0.0018325958,-0.03176499,0.0012217305,TREMOR,557862465c0e
1776917494232,2025718682917838,-9.765948,-0.41180268,1.5298948,0.0012217305,-0.02687807,0.0012217305,TREMOR,557862465c0e
1776917494240,2025718690915382,-9.787497,-0.40701428,1.5179238,0.0012217305,-0.017104227,6.1086525E-4,TREMOR,557862465c0e
1776917494248,2025718698910158,-9.763555,-0.39504328,1.5466543,0.0012217305,-0.005497787,-0.0012217305,TREMOR,557862465c0e
1776917494256,2025718706904625,-9.773131,-0.39983168,1.5514427,-6.1086525E-4,0.008552114,-6.1086525E-4,TREMOR,557862465c0e
1776917494264,2025718714931093,-9.797073,-0.40222588,1.5298948,0.0,0.016493361,-0.0012217305,TREMOR,557862465c0e
1776917494272,2025718722926868,-9.811439,-0.40940848,1.5059528,0.0,0.012217305,0.0,TREMOR,557862465c0e
1776917494280,2025718730921566,-9.825804,-0.39983168,1.5227122,0.002443461,0.0036651916,0.0018325958,TREMOR,557862465c0e
1776917494288,2025718738918572,-9.797073,-0.39504328,1.5251064,0.002443461,-0.01038471,0.002443461,TREMOR,557862465c0e
1776917494296,2025718746914271,-9.782708,-0.3854665,1.553837,0.002443461,-0.018325957,0.0036651916,TREMOR,557862465c0e
1776917494304,2025718754910508,-9.770737,-0.39504328,1.5610195,0.0030543262,-0.019547688,0.004886922,TREMOR,557862465c0e
1776917494312,2025718762904744,-9.770737,-0.39983168,1.5682021,-6.1086525E-4,-0.009773844,0.0018325958,TREMOR,557862465c0e
1776917494320,2025718770930596,-9.77792,-0.39983168,1.5370775,6.1086525E-4,0.0030543262,0.0018325958,TREMOR,557862465c0e
1776917494328,2025718778928372,-9.7803135,-0.39025488,1.5346833,0.0,0.010995574,6.1086525E-4,TREMOR,557862465c0e
1776917494336,2025718786925070,-9.792285,-0.40701428,1.5370775,6.1086525E-4,0.01160644,0.0012217305,TREMOR,557862465c0e
1776917494344,2025718794918922,-9.78989,-0.40940848,1.5179238,0.0,0.009162978,0.0012217305,TREMOR,557862465c0e
1776917494352,2025718802916159,-9.794679,-0.39504328,1.5179238,0.0,0.0012217305,0.002443461,TREMOR,557862465c0e
1776917494360,2025718810910011,-9.794679,-0.3854665,1.5227122,0.0,-0.0018325958,0.0018325958,TREMOR,557862465c0e
1776917494368,2025718818906940,-9.7803135,-0.37828386,1.5514427,-6.1086525E-4,-0.0018325958,-6.1086525E-4,TREMOR,557862465c0e
1776917494376,2025718826932408,-9.794679,-0.3878607,1.5346833,6.1086525E-4,-0.002443461,0.0012217305,TREMOR,557862465c0e
1776917494384,2025718834929029,-9.77792,-0.39264908,1.532289,6.1086525E-4,0.0012217305,0.0,TREMOR,557862465c0e
1776917494392,2025718842920804,-9.770737,-0.39504328,1.5346833,0.0,0.004886922,-0.0018325958,TREMOR,557862465c0e
1776917494400,2025718850919195,-9.785102,-0.4237737,1.520318,0.0,0.007330383,-0.0012217305,TREMOR,557862465c0e
1776917494408,2025718858914355,-9.7803135,-0.3854665,1.5179238,0.0012217305,0.007941248,-6.1086525E-4,TREMOR,557862465c0e
1776917494416,2025718866908130,-9.77792,-0.39743748,1.541866,-0.0012217305,0.014049901,-0.0018325958,TREMOR,557862465c0e
1776917494424,2025718874907521,-9.770737,-0.40222588,1.5131354,-0.002443461,0.02565634,-0.002443461,TREMOR,557862465c0e
1776917494432,2025718882930604,-9.785102,-0.40222588,1.4891934,-0.0018325958,0.030543262,-0.0018325958,TREMOR,557862465c0e
1776917494440,2025718890928533,-9.794679,-0.39264908,1.5107412,-0.002443461,0.032986723,0.0,TREMOR,557862465c0e
1776917494448,2025718898923847,-9.77792,-0.40701428,1.4891934,-0.0018325958,0.035430185,-6.1086525E-4,TREMOR,557862465c0e
1776917494456,2025718906919545,-9.794679,-0.40222588,1.4700398,0.0,0.02565634,6.1086525E-4,TREMOR,557862465c0e
1776917494464,2025718914912859,-9.801862,-0.40462008,1.4796166,0.0012217305,0.008552114,0.0018325958,TREMOR,557862465c0e
1776917494472,2025718922907942,-9.782708,-0.3878607,1.508347,0.0,0.0,0.0012217305,TREMOR,557862465c0e
1776917494480,2025718930904871,-9.7803135,-0.40701428,1.5155296,0.0,-0.004886922,0.0012217305,TREMOR,557862465c0e
1776917494488,2025718938931261,-9.768343,-0.40462008,1.5227122,6.1086525E-4,-0.0061086523,0.002443461,TREMOR,557862465c0e
1776917494496,2025718946928498,-9.7803135,-0.40701428,1.5227122,-6.1086525E-4,-0.0018325958,-0.0012217305,TREMOR,557862465c0e
1776917494504,2025718954921196,-9.763555,-0.39025488,1.5035586,0.0012217305,-0.0030543262,-6.1086525E-4,TREMOR,557862465c0e
1776917494512,2025718962918664,-9.76116,-0.4285621,1.4915876,0.0,-0.007330383,0.0,TREMOR,557862465c0e
1776917494520,2025718970914747,-9.773131,-0.39983168,1.4915876,-6.1086525E-4,-0.01160644,6.1086525E-4,TREMOR,557862465c0e
1776917494528,2025718978908214,-9.765948,-0.39983168,1.5227122,0.0018325958,-0.015271631,0.002443461,TREMOR,557862465c0e
1776917494536,2025718986905144,-9.7803135,-0.39504328,1.5131354,0.0012217305,-0.014660766,0.002443461,TREMOR,557862465c0e
1776917494544,2025718994929842,-9.782708,-0.38307226,1.5275006,0.0012217305,-0.013439035,0.0,TREMOR,557862465c0e
1776917494552,2025719002925771,-9.782708,-0.39264908,1.5346833,6.1086525E-4,-0.01160644,0.0,TREMOR,557862465c0e
1776917494560,2025719010921239,-9.7803135,-0.39264908,1.5370775,0.0012217305,-0.009162978,0.0,TREMOR,557862465c0e
1776917494568,2025719018919629,-9.797073,-0.39025488,1.5346833,0.0,-0.0036651916,-6.1086525E-4,TREMOR,557862465c0e
1776917494576,2025719026913558,-9.801862,-0.3878607,1.520318,6.1086525E-4,-0.0036651916,0.0012217305,TREMOR,557862465c0e
1776917494584,2025719034911026,-9.7803135,-0.39743748,1.5562311,0.0012217305,-0.004276057,0.0018325958,TREMOR,557862465c0e
1776917494592,2025719042903724,-9.785102,-0.39264908,1.5466543,0.0,-0.005497787,0.002443461,TREMOR,557862465c0e
1776917494600,2025719050932038,-9.775525,-0.39504328,1.5346833,6.1086525E-4,-0.0061086523,6.1086525E-4,TREMOR,557862465c0e
1776917494608,2025719058924582,-9.78989,-0.3878607,1.5227122,0.0012217305,-0.007330383,-6.1086525E-4,TREMOR,557862465c0e
1776917494616,2025719066923358,-9.765948,-0.40462008,1.532289,0.002443461,-0.004276057,-0.0012217305,TREMOR,557862465c0e
1776917494624,2025719074916902,-9.782708,-0.40701428,1.5442601,0.0012217305,-0.0030543262,-0.0012217305,TREMOR,557862465c0e
1776917494632,2025719082913216,-9.782708,-0.39264908,1.5370775,-6.1086525E-4,-0.0012217305,-6.1086525E-4,TREMOR,557862465c0e
1776917494640,2025719090909299,-9.785102,-0.40222588,1.520318,0.0,0.004276057,0.0,TREMOR,557862465c0e
1776917494648,2025719098904074,-9.785102,-0.39025488,1.5442601,-0.0012217305,0.01282817,-6.1086525E-4,TREMOR,557862465c0e
1776917494656,2025719106929926,-9.797073,-0.38307226,1.5514427,-0.0036651916,0.020158553,-0.0012217305,TREMOR,557862465c0e
1776917494664,2025719114925009,-9.794679,-0.3854665,1.532289,-0.0018325958,0.02443461,-0.0012217305,TREMOR,557862465c0e
1776917494672,2025719122919784,-9.785102,-0.40701428,1.5035586,-6.1086525E-4,0.028099801,0.0012217305,TREMOR,557862465c0e
1776917494680,2025719130917021,-9.801862,-0.40940848,1.5107412,6.1086525E-4,0.02321288,0.0012217305,TREMOR,557862465c0e
1776917494688,2025719138912950,-9.787497,-0.40940848,1.5179238,0.0018325958,0.017715093,0.002443461,TREMOR,557862465c0e
1776917494696,2025719146908341,-9.770737,-0.40462008,1.5131354,0.0,0.015271631,0.0012217305,TREMOR,557862465c0e
1776917494704,2025719154904347,-9.782708,-0.39983168,1.5227122,0.0018325958,0.01038471,0.002443461,TREMOR,557862465c0e
1776917494712,2025719162929891,-9.773131,-0.39025488,1.5275006,0.0018325958,0.014049901,0.002443461,TREMOR,557862465c0e
1776917494720,2025719170925974,-9.7803135,-0.39025488,1.484405,6.1086525E-4,0.014660766,0.0018325958,TREMOR,557862465c0e
1776917494728,2025719178922519,-9.7803135,-0.39264908,1.4652514,0.002443461,0.01160644,6.1086525E-4,TREMOR,557862465c0e
1776917494736,2025719186918602,-9.7563715,-0.40701428,1.5155296,0.0018325958,0.004886922,6.1086525E-4,TREMOR,557862465c0e
1776917494744,2025719194912146,-9.78989,-0.39504328,1.5059528,0.0,6.1086525E-4,0.0,TREMOR,557862465c0e
1776917494752,2025719202909306,-9.792285,-0.3878607,1.508347,6.1086525E-4,0.0030543262,-0.0012217305,TREMOR,557862465c0e
1776917494760,2025719210904697,-9.78989,-0.39983168,1.508347,0.0,0.004276057,0.0018325958,TREMOR,557862465c0e
1776917494768,2025719218932472,-9.782708,-0.38067806,1.5227122,0.0,0.0061086523,6.1086525E-4,TREMOR,557862465c0e
1776917494776,2025719226926555,-9.816227,-0.4189853,1.4748282,0.0012217305,0.004886922,0.0,TREMOR,557862465c0e
1776917494784,2025719234921022,-9.787497,-0.39743748,1.4939818,0.002443461,-0.012217305,6.1086525E-4,TREMOR,557862465c0e
1776917494792,2025719242918644,-9.799467,-0.39264908,1.5251064,0.0012217305,-0.018325957,0.0018325958,TREMOR,557862465c0e
1776917494800,2025719250912188,-9.770737,-0.39025488,1.5394717,-6.1086525E-4,-0.016493361,0.0012217305,TREMOR,557862465c0e
1776917494808,2025719258907579,-9.768343,-0.3878607,1.5490485,0.0012217305,-0.01282817,0.0012217305,TREMOR,557862465c0e
1776917494816,2025719266905047,-9.775525,-0.39504328,1.520318,6.1086525E-4,-0.0018325958,0.0012217305,TREMOR,557862465c0e
1776917494824,2025719274930591,-9.77792,-0.39743748,1.5059528,6.1086525E-4,0.0030543262,0.0012217305,TREMOR,557862465c0e
1776917494832,2025719282924136,-9.782708,-0.39504328,1.4891934,-6.1086525E-4,0.004276057,0.0012217305,TREMOR,557862465c0e
1776917494840,2025719290921757,-9.794679,-0.38307226,1.5107412,6.1086525E-4,-0.0012217305,-6.1086525E-4,TREMOR,557862465c0e
1776917494848,2025719298917378,-9.78989,-0.39743748,1.5227122,6.1086525E-4,-0.0018325958,-6.1086525E-4,TREMOR,557862465c0e
1776917494856,2025719306912231,-9.785102,-0.37349546,1.5227122,0.0012217305,-0.007941248,6.1086525E-4,TREMOR,557862465c0e
1776917494864,2025719314908544,-9.782708,-0.3878607,1.5227122,0.0,-0.008552114,6.1086525E-4,TREMOR,557862465c0e
1776917494872,2025719322902704,-9.799467,-0.39504328,1.5227122,0.0012217305,-0.009162978,-0.0012217305,TREMOR,557862465c0e
1776917494880,2025719330930633,-9.782708,-0.3854665,1.5394717,-6.1086525E-4,-0.004886922,0.0012217305,TREMOR,557862465c0e
1776917494888,2025719338924178,-9.7803135,-0.40462008,1.5394717,6.1086525E-4,-0.007330383,-0.0012217305,TREMOR,557862465c0e
1776917494896,2025719346920568,-9.782708,-0.39504328,1.5298948,0.0012217305,-0.005497787,0.0012217305,TREMOR,557862465c0e
1776917494904,2025719354915959,-9.792285,-0.39504328,1.532289,0.0018325958,-0.0061086523,-0.0012217305,TREMOR,557862465c0e
1776917494912,2025719362910657,-9.76116,-0.40222588,1.532289,0.0,-6.1086525E-4,-6.1086525E-4,TREMOR,557862465c0e
1776917494920,2025719370908202,-9.768343,-0.39983168,1.5586253,-0.002443461,0.014049901,-0.0018325958,TREMOR,557862465c0e
1776917494928,2025719378932592,-9.7803135,-0.40701428,1.5227122,-0.002443461,0.022602014,0.0,TREMOR,557862465c0e
1776917494936,2025719386930445,-9.799467,-0.41180268,1.4772224,-6.1086525E-4,0.02687807,0.0,TREMOR,557862465c0e
1776917494944,2025719394923681,-9.8042555,-0.39983168,1.460463,-6.1086525E-4,0.018936822,0.0018325958,TREMOR,557862465c0e
1776917494952,2025719402918764,-9.792285,-0.39743748,1.4867992,0.0,0.004886922,0.0018325958,TREMOR,557862465c0e
1776917494960,2025719410916924,-9.77792,-0.39983168,1.5251064,6.1086525E-4,-0.014049901,0.0018325958,TREMOR,557862465c0e
1776917494968,2025719418912853,-9.7803135,-0.39264908,1.5634137,6.1086525E-4,-0.015882496,0.0012217305,TREMOR,557862465c0e
1776917494976,2025719426908321,-9.770737,-0.39264908,1.5514427,0.0012217305,-0.01160644,0.0018325958,TREMOR,557862465c0e
1776917494984,2025719434933865,-9.7803135,-0.39743748,1.532289,0.0012217305,-0.002443461,0.0018325958,TREMOR,557862465c0e
1776917494992,2025719442928333,-9.797073,-0.4165911,1.4820108,0.002443461,-0.0018325958,0.0,TREMOR,557862465c0e
1776917495000,2025719450925262,-9.787497,-0.39264908,1.4796166,0.004276057,-0.009773844,0.0012217305,TREMOR,557862465c0e
1776917495008,2025719458921883,-9.785102,-0.39743748,1.5490485,6.1086525E-4,-0.015271631,0.002443461,TREMOR,557862465c0e
1776917495016,2025719466916274,-9.773131,-0.39983168,1.5634137,0.0012217305,-0.015271631,0.0012217305,TREMOR,557862465c0e
1776917495024,2025719474911742,-9.794679,-0.39504328,1.541866,0.0012217305,-0.009773844,0.0030543262,TREMOR,557862465c0e
1776917495032,2025719482907671,-9.768343,-0.38067806,1.5131354,0.002443461,0.0012217305,0.0018325958,TREMOR,557862465c0e
1776917495040,2025719490935061,-9.775525,-0.3878607,1.5059528,0.0,0.0067195175,0.0018325958,TREMOR,557862465c0e
1776917495048,2025719498929913,-9.809045,-0.40462008,1.4987702,6.1086525E-4,0.009773844,-6.1086525E-4,TREMOR,557862465c0e
1776917495056,2025719506923381,-9.799467,-0.39025488,1.5011644,0.0,0.010995574,0.0,TREMOR,557862465c0e
1776917495064,2025719514919079,-9.77792,-0.37828386,1.496376,0.0,0.007330383,6.1086525E-4,TREMOR,557862465c0e
1776917495072,2025719522916008,-9.794679,-0.39743748,1.484405,0.0,0.002443461,6.1086525E-4,TREMOR,557862465c0e
1776917495080,2025719530910168,-9.787497,-0.3854665,1.5251064,0.0018325958,-0.0030543262,-0.0018325958,TREMOR,557862465c0e
1776917495088,2025719538907097,-9.78989,-0.39504328,1.5227122,0.0,-0.002443461,0.0018325958,TREMOR,557862465c0e
1776917495096,2025719546933950,-9.758766,-0.39743748,1.5107412,0.0012217305,-0.0018325958,6.1086525E-4,TREMOR,557862465c0e
1776917495104,2025719554929571,-9.792285,-0.38307226,1.4772224,0.0,-0.004886922,0.0,TREMOR,557862465c0e
1776917495112,2025719562925269,-9.775525,-0.3854665,1.5155296,0.0012217305,-0.009162978,-0.0012217305,TREMOR,557862465c0e
1776917495120,2025719570918891,-9.787497,-0.39025488,1.5227122,0.0012217305,-0.0067195175,0.0,TREMOR,557862465c0e
1776917495128,2025719578915820,-9.782708,-0.39504328,1.532289,-6.1086525E-4,-0.0018325958,-6.1086525E-4,TREMOR,557862465c0e
1776917495136,2025719586910826,-9.775525,-0.40462008,1.532289,-0.0018325958,0.01282817,-0.0012217305,TREMOR,557862465c0e
1776917495144,2025719594907755,-9.782708,-0.39025488,1.5011644,-0.0012217305,0.018936822,0.0,TREMOR,557862465c0e
1776917495152,2025719602932146,-9.77792,-0.39743748,1.4867992,-6.1086525E-4,0.019547688,0.0018325958,TREMOR,557862465c0e
1776917495160,2025719610929690,-9.787497,-0.40701428,1.484405,-0.0012217305,0.014049901,6.1086525E-4,TREMOR,557862465c0e
1776917495168,2025719618925696,-9.770737,-0.3854665,1.5011644,6.1086525E-4,0.0,6.1086525E-4,TREMOR,557862465c0e
1776917495176,2025719626919856,-9.768343,-0.39743748,1.5251064,-0.0012217305,-0.0030543262,6.1086525E-4,TREMOR,557862465c0e
1776917495184,2025719634916093,-9.787497,-0.39504328,1.508347,0.0,-0.002443461,0.0018325958,TREMOR,557862465c0e
1776917495192,2025719642910945,-9.78989,-0.40222588,1.508347,0.0,-0.002443461,0.0018325958,TREMOR,557862465c0e
1776917495200,2025719650906566,-9.801862,-0.39743748,1.5179238,-6.1086525E-4,-0.004886922,-0.0012217305,TREMOR,557862465c0e
1776917495208,2025719658932803,-9.785102,-0.39264908,1.5179238,-6.1086525E-4,-0.0018325958,6.1086525E-4,TREMOR,557862465c0e
1776917495216,2025719666927194,-9.801862,-0.41180268,1.5035586,-0.0018325958,-0.007330383,0.0012217305,TREMOR,557862465c0e
1776917495224,2025719674923815,-9.77792,-0.38307226,1.484405,0.0018325958,-0.018325957,0.0,TREMOR,557862465c0e
1776917495232,2025719682919821,-9.768343,-0.37110126,1.5155296,0.0018325958,-0.023823744,0.0018325958,TREMOR,557862465c0e
1776917495240,2025719690914366,-9.775525,-0.40940848,1.5227122,0.0,-0.020158553,-6.1086525E-4,TREMOR,557862465c0e
1776917495248,2025719698912141,-9.758766,-0.39743748,1.5442601,0.0,-0.014660766,0.0012217305,TREMOR,557862465c0e
1776917495256,2025719706908531,-9.77792,-0.38067806,1.5490485,0.0,-0.005497787,0.0018325958,TREMOR,557862465c0e
1776917495264,2025719714933153,-9.785102,-0.39743748,1.5370775,-0.0018325958,0.002443461,-0.0012217305,TREMOR,557862465c0e
1776917495272,2025719722928851,-9.801862,-0.3878607,1.5251064,-0.0012217305,0.0067195175,-6.1086525E-4,TREMOR,557862465c0e
1776917495280,2025719730923934,-9.794679,-0.3878607,1.5298948,6.1086525E-4,0.004276057,6.1086525E-4,TREMOR,557862465c0e
1776917495288,2025719738919248,-9.782708,-0.39743748,1.5298948,0.0,0.0036651916,0.0012217305,TREMOR,557862465c0e
1776917495296,2025719746913792,-9.76116,-0.39983168,1.5179238,6.1086525E-4,0.0036651916,0.0012217305,TREMOR,557862465c0e
1776917495304,2025719754911029,-9.77792,-0.39025488,1.5227122,0.0,0.004886922,0.0018325958,TREMOR,557862465c0e
1776917495312,2025719762905804,-9.773131,-0.38067806,1.541866,6.1086525E-4,0.007941248,6.1086525E-4,TREMOR,557862465c0e
1776917495320,2025719770932195,-9.775525,-0.3854665,1.5251064,0.0,0.014049901,0.0,TREMOR,557862465c0e
1776917495328,2025719778928201,-9.792285,-0.4141969,1.5251064,-6.1086525E-4,0.021380283,0.0012217305,TREMOR,557862465c0e
1776917495336,2025719786924822,-9.80665,-0.39264908,1.5179238,-0.0012217305,0.02687807,0.0,TREMOR,557862465c0e
1776917495344,2025719794919059,-9.792285,-0.38307226,1.5011644,0.0,0.026267206,-0.0012217305,TREMOR,557862465c0e
1776917495352,2025719802914142,-9.785102,-0.41180268,1.5131354,6.1086525E-4,0.020158553,-6.1086525E-4,TREMOR,557862465c0e
1776917495360,2025719810910764,-9.794679,-0.39025488,1.5035586,0.0012217305,0.015271631,0.002443461,TREMOR,557862465c0e
1776917495368,2025719818906385,-9.76116,-0.3878607,1.5155296,0.002443461,0.01038471,0.002443461,TREMOR,557862465c0e
1776917495376,2025719826902160,-9.765948,-0.40940848,1.5011644,0.0,0.01160644,0.0012217305,TREMOR,557862465c0e
1776917495384,2025719834927628,-9.770737,-0.4141969,1.5131354,0.0018325958,0.014660766,6.1086525E-4,TREMOR,557862465c0e
1776917495392,2025719842924326,-9.787497,-0.39743748,1.5011644,0.0030543262,0.017104227,6.1086525E-4,TREMOR,557862465c0e
1776917495400,2025719850918409,-9.773131,-0.39264908,1.496376,6.1086525E-4,0.019547688,0.0018325958,TREMOR,557862465c0e
1776917495408,2025719858914800,-9.768343,-0.39743748,1.4580688,6.1086525E-4,0.017715093,0.0018325958,TREMOR,557862465c0e
1776917495416,2025719866909575,-9.794679,-0.40222588,1.4796166,0.0012217305,0.014660766,0.0018325958,TREMOR,557862465c0e
1776917495424,2025719874907042,-9.78989,-0.39264908,1.4820108,0.0018325958,0.0067195175,6.1086525E-4,TREMOR,557862465c0e
1776917495432,2025719882931048,-9.7803135,-0.3878607,1.4867992,6.1086525E-4,6.1086525E-4,0.002443461,TREMOR,557862465c0e
1776917495440,2025719890928901,-9.77792,-0.40462008,1.4796166,6.1086525E-4,-0.004276057,6.1086525E-4,TREMOR,557862465c0e
1776917495448,2025719898924907,-9.785102,-0.40222588,1.5059528,0.0030543262,-0.014049901,0.0012217305,TREMOR,557862465c0e
1776917495456,2025719906917836,-9.768343,-0.36870706,1.5370775,0.0018325958,-0.013439035,0.0012217305,TREMOR,557862465c0e
1776917495464,2025719914915149,-9.77792,-0.39983168,1.5059528,0.0018325958,-0.008552114,0.002443461,TREMOR,557862465c0e
1776917495472,2025719922908617,-9.78989,-0.3854665,1.5011644,-6.1086525E-4,-0.0030543262,6.1086525E-4,TREMOR,557862465c0e
1776917495480,2025719930905315,-9.7803135,-0.38067806,1.4820108,6.1086525E-4,-0.0012217305,0.0012217305,TREMOR,557862465c0e
1776917495488,2025719938931091,-9.799467,-0.39743748,1.5011644,6.1086525E-4,-0.0030543262,-6.1086525E-4,TREMOR,557862465c0e
1776917495496,2025719946926866,-9.792285,-0.37828386,1.4772224,-0.0018325958,-0.009773844,0.0,TREMOR,557862465c0e
1776917495504,2025719954923103,-9.746795,-0.36152446,1.508347,-0.0012217305,-0.013439035,-0.0018325958,TREMOR,557862465c0e
1776917495512,2025719962917263,-9.787497,-0.3878607,1.4772224,-6.1086525E-4,-0.018325957,-0.0012217305,TREMOR,557862465c0e
1776917495520,2025719970915730,-9.775525,-0.41180268,1.5610195,-0.002443461,-0.023823744,-0.0030543262,TREMOR,557862465c0e
1776917495528,2025719978911505,-9.77792,-0.36870706,1.5179238,-0.0012217305,-0.02321288,0.0,TREMOR,557862465c0e
1776917495536,2025719986904127,-9.763555,-0.37588966,1.5059528,-6.1086525E-4,-0.02076942,0.0,TREMOR,557862465c0e
1776917495544,2025719994932364,-9.765948,-0.39025488,1.5251064,-6.1086525E-4,-0.016493361,-0.0030543262,TREMOR,557862465c0e
1776917495552,2025720002927216,-9.792285,-0.39264908,1.5394717,-0.0018325958,-0.014660766,-0.0012217305,TREMOR,557862465c0e
1776917495560,2025720010923145,-9.78989,-0.40701428,1.5346833,-0.0012217305,-0.01282817,-0.0012217305,TREMOR,557862465c0e
1776917495568,2025720018918920,-9.811439,-0.39504328,1.5251064,-6.1086525E-4,-0.012217305,-0.0012217305,TREMOR,557862465c0e
1776917495576,2025720026913695,-9.78989,-0.4141969,1.5562311,-0.0012217305,-0.01038471,-0.0012217305,TREMOR,557862465c0e
1776917495584,2025720034910855,-9.792285,-0.40462008,1.5634137,-6.1086525E-4,-0.0067195175,-0.0012217305,TREMOR,557862465c0e
1776917495592,2025720042905323,-9.770737,-0.39504328,1.541866,-0.0018325958,0.004886922,0.0,TREMOR,557862465c0e
1776917495600,2025720050931175,-9.768343,-0.39264908,1.5490485,-0.0018325958,0.015882496,6.1086525E-4,TREMOR,557862465c0e
1776917495608,2025720058926950,-9.7803135,-0.39025488,1.5179238,0.0,0.021991149,0.0012217305,TREMOR,557862465c0e
1776917495616,2025720066922572,-9.813833,-0.3854665,1.5011644,-6.1086525E-4,0.022602014,6.1086525E-4,TREMOR,557862465c0e
1776917495624,2025720074918347,-9.799467,-0.41180268,1.508347,0.0012217305,0.016493361,6.1086525E-4,TREMOR,557862465c0e
1776917495632,2025720082914891,-9.785102,-0.39743748,1.5298948,0.0018325958,0.0067195175,0.0018325958,TREMOR,557862465c0e
1776917495640,2025720090908436,-9.782708,-0.39743748,1.5466543,0.002443461,0.004276057,0.0,TREMOR,557862465c0e
1776917495648,2025720098905057,-9.782708,-0.39983168,1.5346833,6.1086525E-4,0.009162978,0.0012217305,TREMOR,557862465c0e
1776917495656,2025720106930602,-9.775525,-0.39025488,1.5346833,0.0018325958,0.015271631,0.0012217305,TREMOR,557862465c0e
1776917495664,2025720114925762,-9.7803135,-0.39983168,1.5442601,0.0018325958,0.018325957,0.0,TREMOR,557862465c0e
1776917495672,2025720122921152,-9.821015,-0.39025488,1.4580688,0.0018325958,0.018936822,0.0018325958,TREMOR,557862465c0e
1776917495680,2025720130917774,-9.770737,-0.39025488,1.4772224,0.0036651916,0.002443461,6.1086525E-4,TREMOR,557862465c0e
1776917495688,2025720138913472,-9.76116,-0.3878607,1.5059528,0.002443461,-0.0061086523,0.0030543262,TREMOR,557862465c0e
1776917495696,2025720146909478,-9.787497,-0.39743748,1.5346833,6.1086525E-4,-0.0067195175,6.1086525E-4,TREMOR,557862465c0e
1776917495704,2025720154935330,-9.768343,-0.39743748,1.532289,-6.1086525E-4,-0.0012217305,0.0,TREMOR,557862465c0e
1776917495712,2025720162929798,-9.768343,-0.39504328,1.5251064,-6.1086525E-4,0.008552114,-6.1086525E-4,TREMOR,557862465c0e
1776917495720,2025720170927881,-9.77792,-0.39264908,1.4939818,-6.1086525E-4,0.015882496,-0.0012217305,TREMOR,557862465c0e
1776917495728,2025720178923964,-9.794679,-0.38307226,1.484405,-0.0012217305,0.016493361,6.1086525E-4,TREMOR,557862465c0e
1776917495736,2025720186919354,-9.787497,-0.3878607,1.4891934,0.0,0.009773844,-6.1086525E-4,TREMOR,557862465c0e
1776917495744,2025720194912206,-9.77792,-0.40222588,1.508347,-0.0012217305,0.0030543262,-6.1086525E-4,TREMOR,557862465c0e
1776917495752,2025720202910058,-9.785102,-0.39743748,1.5275006,-6.1086525E-4,-0.004276057,-0.0012217305,TREMOR,557862465c0e
1776917495760,2025720210903603,-9.775525,-0.39264908,1.520318,0.0012217305,-0.007941248,-0.0012217305,TREMOR,557862465c0e
1776917495768,2025720218930763,-9.775525,-0.39504328,1.5131354,0.0,-0.0067195175,-0.0012217305,TREMOR,557862465c0e
1776917495776,2025720226926153,-9.799467,-0.41180268,1.5155296,-6.1086525E-4,-0.0061086523,-0.002443461,TREMOR,557862465c0e
1776917495784,2025720234922467,-9.785102,-0.3878607,1.5298948,-6.1086525E-4,-6.1086525E-4,0.0,TREMOR,557862465c0e
1776917495792,2025720242917550,-9.770737,-0.39264908,1.5394717,-0.0030543262,0.009162978,0.0,TREMOR,557862465c0e
1776917495800,2025720250913172,-9.765948,-0.40462008,1.5394717,-0.0018325958,0.021991149,-0.0012217305,TREMOR,557862465c0e
1776917495808,2025720258909485,-9.797073,-0.38067806,1.5059528,-0.0012217305,0.028099801,6.1086525E-4,TREMOR,557862465c0e
1776917495816,2025720266904260,-9.78989,-0.39743748,1.472434,-6.1086525E-4,0.02565634,0.0,TREMOR,557862465c0e
1776917495824,2025720274929497,-9.797073,-0.40462008,1.4796166,0.0012217305,0.015271631,0.0012217305,TREMOR,557862465c0e
1776917495832,2025720282925580,-9.794679,-0.39504328,1.5059528,6.1086525E-4,0.002443461,0.0,TREMOR,557862465c0e
1776917495840,2025720290922817,-9.763555,-0.39743748,1.5155296,0.0012217305,-0.007330383,0.0012217305,TREMOR,557862465c0e
1776917495848,2025720298917208,-9.782708,-0.38307226,1.520318,0.0,-0.0061086523,6.1086525E-4,TREMOR,557862465c0e
1776917495856,2025720306911752,-9.765948,-0.39264908,1.5059528,6.1086525E-4,-0.0012217305,0.0,TREMOR,557862465c0e
1776917495864,2025720314909297,-9.787497,-0.40222588,1.4772224,0.0018325958,-0.002443461,-6.1086525E-4,TREMOR,557862465c0e
1776917495872,2025720322904610,-9.797073,-0.39025488,1.4700398,0.0030543262,-0.014049901,-6.1086525E-4,TREMOR,557862465c0e
1776917495880,2025720330929847,-9.765948,-0.3878607,1.5251064,0.0012217305,-0.02321288,6.1086525E-4,TREMOR,557862465c0e
1776917495888,2025720338926161,-9.765948,-0.3878607,1.532289,0.0012217305,-0.025045475,6.1086525E-4,TREMOR,557862465c0e
1776917495896,2025720346920398,-9.768343,-0.39504328,1.532289,-6.1086525E-4,-0.017104227,0.0,TREMOR,557862465c0e
1776917495904,2025720354916096,-9.763555,-0.39264908,1.5251064,-0.0018325958,-0.007941248,0.0,TREMOR,557862465c0e
1776917495912,2025720362912025,-9.773131,-0.39264908,1.5179238,-0.0018325958,0.0018325958,-0.0012217305,TREMOR,557862465c0e
1776917495920,2025720370907723,-9.78989,-0.39504328,1.4915876,-0.0018325958,0.005497787,-0.0036651916,TREMOR,557862465c0e
1776917495928,2025720378933268,-9.80665,-0.39743748,1.5275006,-0.0012217305,0.0030543262,-6.1086525E-4,TREMOR,557862465c0e
1776917495936,2025720386932120,-9.78989,-0.38307226,1.520318,0.0,-6.1086525E-4,-6.1086525E-4,TREMOR,557862465c0e
1776917495944,2025720394926511,-9.773131,-0.3854665,1.532289,0.0,-0.004276057,-6.1086525E-4,TREMOR,557862465c0e
1776917495952,2025720402920363,-9.78989,-0.37828386,1.5251064,-6.1086525E-4,-0.009773844,6.1086525E-4,TREMOR,557862465c0e
1776917495960,2025720410916984,-9.773131,-0.39025488,1.5298948,0.0,-0.01160644,-6.1086525E-4,TREMOR,557862465c0e
1776917495968,2025720418911529,-9.768343,-0.40222588,1.5514427,-0.0012217305,-0.009162978,-0.0012217305,TREMOR,557862465c0e
1776917495976,2025720426908381,-9.765948,-0.39264908,1.532289,-0.0012217305,-0.009162978,-6.1086525E-4,TREMOR,557862465c0e
1776917495984,2025720434902925,-9.753978,-0.39264908,1.541866,-0.0018325958,-0.0036651916,-0.0012217305,TREMOR,557862465c0e
1776917495992,2025720442929008,-9.753978,-0.39504328,1.5562311,-0.0012217305,0.014660766,-6.1086525E-4,TREMOR,557862465c0e
1776917496000,2025720450927245,-9.8042555,-0.40222588,1.5466543,-0.0030543262,0.02687807,-0.002443461,TREMOR,557862465c0e
1776917496008,2025720458919790,-9.782708,-0.39983168,1.5107412,-0.002443461,0.03481932,-0.002443461,TREMOR,557862465c0e
1776917496016,2025720466918949,-9.792285,-0.39025488,1.5107412,-0.0018325958,0.037873644,-0.002443461,TREMOR,557862465c0e
1776917496024,2025720474912802,-9.809045,-0.41180268,1.4867992,0.0,0.03359759,-6.1086525E-4,TREMOR,557862465c0e
1776917496032,2025720482906961,-9.80665,-0.39264908,1.4772224,0.0,0.020158553,0.0,TREMOR,557862465c0e
1776917496040,2025720490904121,-9.787497,-0.39504328,1.5155296,0.0018325958,0.009162978,0.0018325958,TREMOR,557862465c0e
1776917496048,2025720498929358,-9.770737,-0.39983168,1.520318,0.0012217305,0.002443461,0.0018325958,TREMOR,557862465c0e
1776917496056,2025720506925364,-9.775525,-0.40222588,1.496376,0.0018325958,0.004886922,0.002443461,TREMOR,557862465c0e
1776917496064,2025720514920524,-9.792285,-0.39025488,1.5035586,0.0012217305,0.0036651916,6.1086525E-4,TREMOR,557862465c0e
1776917496072,2025720522917068,-9.773131,-0.3878607,1.4652514,0.0036651916,0.0018325958,0.0018325958,TREMOR,557862465c0e
1776917496080,2025720530912228,-9.792285,-0.3854665,1.520318,0.0,0.0,0.0012217305,TREMOR,557862465c0e
1776917496088,2025720538908234,-9.787497,-0.4189853,1.5107412,0.0018325958,-6.1086525E-4,-0.0018325958,TREMOR,557862465c0e
1776917496096,2025720546903625,-9.763555,-0.3854665,1.5251064,6.1086525E-4,0.0,0.0012217305,TREMOR,557862465c0e
1776917496104,2025720554928477,-9.7803135,-0.41180268,1.5131354,-6.1086525E-4,0.007330383,-0.0018325958,TREMOR,557862465c0e
1776917496112,2025720562924483,-9.7803135,-0.40701428,1.4820108,0.0,0.008552114,6.1086525E-4,TREMOR,557862465c0e
1776917496120,2025720570920258,-9.809045,-0.39264908,1.4915876,-6.1086525E-4,-0.0012217305,-0.0012217305,TREMOR,557862465c0e
1776917496128,2025720578915880,-9.797073,-0.3854665,1.5179238,-6.1086525E-4,-0.008552114,-6.1086525E-4,TREMOR,557862465c0e
1776917496136,2025720586912270,-9.799467,-0.39743748,1.541866,6.1086525E-4,-0.012217305,-0.0012217305,TREMOR,557862465c0e
1776917496144,2025720594906661,-9.785102,-0.39504328,1.5227122,-6.1086525E-4,-0.013439035,6.1086525E-4,TREMOR,557862465c0e
1776917496152,2025720602933206,-9.775525,-0.40701428,1.520318,0.0,-0.009773844,-0.0018325958,TREMOR,557862465c0e
1776917496160,2025720610928904,-9.768343,-0.39743748,1.5275006,0.0,-0.0061086523,-0.0018325958,TREMOR,557862465c0e
1776917496168,2025720618924525,-9.787497,-0.39983168,1.5131354,-6.1086525E-4,-0.004276057,-0.002443461,TREMOR,557862465c0e
1776917496176,2025720626920608,-9.785102,-0.38307226,1.5394717,-0.0012217305,-0.002443461,-0.0018325958,TREMOR,557862465c0e
1776917496184,2025720634916922,-9.775525,-0.39264908,1.520318,-0.0012217305,0.0,-0.0018325958,TREMOR,557862465c0e
1776917496192,2025720642912620,-9.794679,-0.40222588,1.508347,0.0012217305,0.002443461,-6.1086525E-4,TREMOR,557862465c0e
1776917496200,2025720650907396,-9.8042555,-0.39983168,1.520318,6.1086525E-4,0.0,-6.1086525E-4,TREMOR,557862465c0e
1776917496208,2025720658932940,-9.785102,-0.39264908,1.5035586,0.0,-6.1086525E-4,-0.0012217305,TREMOR,557862465c0e
1776917496216,2025720666929254,-9.782708,-0.39025488,1.5227122,0.0012217305,-0.0030543262,-0.0030543262,TREMOR,557862465c0e
1776917496224,2025720674926106,-9.78989,-0.3878607,1.532289,0.0012217305,-0.004276057,6.1086525E-4,TREMOR,557862465c0e
1776917496232,2025720682920650,-9.76116,-0.38307226,1.5586253,-6.1086525E-4,0.002443461,-6.1086525E-4,TREMOR,557862465c0e
1776917496240,2025720690915964,-9.77792,-0.39504328,1.553837,-0.0012217305,0.019547688,-0.0012217305,TREMOR,557862465c0e
1776917496248,2025720698911047,-9.787497,-0.40222588,1.4987702,0.0,0.029321533,-0.0018325958,TREMOR,557862465c0e
1776917496256,2025720706907438,-9.80665,-0.4141969,1.460463,-6.1086525E-4,0.03176499,-6.1086525E-4,TREMOR,557862465c0e
1776917496264,2025720714933905,-9.809045,-0.40462008,1.4820108,-6.1086525E-4,0.023823744,0.0,TREMOR,557862465c0e
1776917496272,2025720722929296,-9.78989,-0.4141969,1.4915876,-6.1086525E-4,0.010995574,-6.1086525E-4,TREMOR,557862465c0e
1776917496280,2025720730923379,-9.758766,-0.39983168,1.4915876,0.0,0.0012217305,6.1086525E-4,TREMOR,557862465c0e
1776917496288,2025720738919462,-9.77792,-0.39743748,1.4891934,6.1086525E-4,-0.004886922,-0.0018325958,TREMOR,557862465c0e
1776917496296,2025720746915699,-9.775525,-0.40222588,1.520318,0.0018325958,-0.0061086523,-6.1086525E-4,TREMOR,557862465c0e
1776917496304,2025720754911166,-9.775525,-0.40701428,1.5059528,0.0012217305,-0.008552114,-0.0012217305,TREMOR,557862465c0e
1776917496312,2025720762907095,-9.77792,-0.39504328,1.5131354,-0.0012217305,-0.007330383,-6.1086525E-4,TREMOR,557862465c0e
1776917496320,2025720770932024,-9.775525,-0.40701428,1.520318,6.1086525E-4,-0.0018325958,0.0,TREMOR,557862465c0e
1776917496328,2025720778928107,-9.787497,-0.39743748,1.4891934,-0.0012217305,0.0018325958,-0.0018325958,TREMOR,557862465c0e
1776917496336,2025720786924421,-9.78989,-0.40222588,1.496376,-0.0012217305,-0.005497787,-6.1086525E-4,TREMOR,557862465c0e
1776917496344,2025720794918581,-9.775525,-0.38307226,1.5059528,0.0,-0.016493361,0.0,TREMOR,557862465c0e
1776917496352,2025720802915818,-9.765948,-0.3854665,1.5275006,6.1086525E-4,-0.018936822,6.1086525E-4,TREMOR,557862465c0e
1776917496360,2025720810911208,-9.751583,-0.39504328,1.553837,-0.0012217305,-0.015882496,0.0012217305,TREMOR,557862465c0e
1776917496368,2025720818906830,-9.78989,-0.39504328,1.5370775,-0.0030543262,-0.009162978,-6.1086525E-4,TREMOR,557862465c0e
1776917496376,2025720826932759,-9.80665,-0.40462008,1.5298948,-0.0018325958,-6.1086525E-4,-0.0012217305,TREMOR,557862465c0e
1776917496384,2025720834928765,-9.78989,-0.39264908,1.520318,-0.0012217305,0.0036651916,-6.1086525E-4,TREMOR,557862465c0e
1776917496392,2025720842923771,-9.801862,-0.39264908,1.5227122,-6.1086525E-4,6.1086525E-4,-0.002443461,TREMOR,557862465c0e
1776917496400,2025720850921392,-9.8042555,-0.39743748,1.5155296,-6.1086525E-4,-0.0018325958,-6.1086525E-4,TREMOR,557862465c0e
1776917496408,2025720858915167,-9.794679,-0.40462008,1.5562311,0.0,-0.0012217305,-0.0018325958,TREMOR,557862465c0e
1776917496416,2025720866910943,-9.792285,-0.40222588,1.520318,-6.1086525E-4,-0.004276057,6.1086525E-4,TREMOR,557862465c0e
1776917496424,2025720874906564,-9.794679,-0.39743748,1.541866,0.0,-0.004886922,0.0,TREMOR,557862465c0e
1776917496432,2025720882931801,-9.782708,-0.39504328,1.5370775,0.0012217305,-0.0036651916,0.0012217305,TREMOR,557862465c0e
1776917496440,2025720890927807,-9.773131,-0.4165911,1.5370775,0.0018325958,-6.1086525E-4,-0.0018325958,TREMOR,557862465c0e
1776917496448,2025720898923274,-9.787497,-0.3854665,1.5346833,0.0012217305,0.0018325958,-6.1086525E-4,TREMOR,557862465c0e
1776917496456,2025720906919819,-9.768343,-0.40462008,1.5394717,-6.1086525E-4,0.01038471,0.0012217305,TREMOR,557862465c0e
1776917496464,2025720914914979,-9.787497,-0.3854665,1.5275006,-6.1086525E-4,0.022602014,-0.0036651916,TREMOR,557862465c0e
1776917496472,2025720922910985,-9.799467,-0.39983168,1.541866,-0.0018325958,0.029932396,-0.0018325958,TREMOR,557862465c0e
1776917496480,2025720930905991,-9.821015,-0.40462008,1.4820108,-0.0018325958,0.03359759,-0.0012217305,TREMOR,557862465c0e
1776917496488,2025720938931920,-9.809045,-0.4141969,1.4891934,-0.0018325958,0.02687807,-6.1086525E-4,TREMOR,557862465c0e
1776917496496,2025720946927003,-9.785102,-0.40222588,1.508347,0.0,0.018325957,-0.0012217305,TREMOR,557862465c0e
1776917496504,2025720954923624,-9.765948,-0.40222588,1.5059528,6.1086525E-4,0.008552114,0.0012217305,TREMOR,557862465c0e
1776917496512,2025720962919938,-9.76116,-0.40462008,1.5251064,0.0,0.0030543262,6.1086525E-4,TREMOR,557862465c0e
1776917496520,2025720970914944,-9.77792,-0.40222588,1.5035586,0.0,0.0036651916,6.1086525E-4,TREMOR,557862465c0e
1776917496528,2025720978910104,-9.78989,-0.4261679,1.5011644,0.0012217305,0.0012217305,6.1086525E-4,TREMOR,557862465c0e
1776917496536,2025720986906033,-9.696517,-0.4261679,1.520318,6.1086525E-4,0.0018325958,0.002443461,TREMOR,557862465c0e
1776917496544,2025720994932885,-9.818622,-0.3878607,1.496376,-6.1086525E-4,0.0061086523,0.002443461,TREMOR,557862465c0e
1776917496552,2025721002927968,-9.797073,-0.41180268,1.4772224,0.0018325958,-0.0061086523,-0.0030543262,TREMOR,557862465c0e
1776917496560,2025721010923666,-9.763555,-0.39264908,1.520318,6.1086525E-4,-0.018325957,0.002443461,TREMOR,557862465c0e
1776917496568,2025721018918749,-9.782708,-0.39743748,1.532289,-6.1086525E-4,-0.017715093,-6.1086525E-4,TREMOR,557862465c0e
1776917496576,2025721026914986,-9.801862,-0.39025488,1.5442601,6.1086525E-4,-0.013439035,0.0,TREMOR,557862465c0e
1776917496584,2025721034910146,-9.785102,-0.39743748,1.5179238,0.0,-0.002443461,-6.1086525E-4,TREMOR,557862465c0e
1776917496592,2025721042905844,-9.787497,-0.39504328,1.5275006,-0.0012217305,0.007330383,6.1086525E-4,TREMOR,557862465c0e
1776917496600,2025721050931927,-9.797073,-0.39025488,1.5011644,6.1086525E-4,0.012217305,0.0018325958,TREMOR,557862465c0e
1776917496608,2025721058926395,-9.787497,-0.39504328,1.4820108,0.0012217305,0.01038471,0.0018325958,TREMOR,557862465c0e
1776917496616,2025721066923632,-9.797073,-0.40701428,1.5179238,0.0018325958,0.004276057,0.0018325958,TREMOR,557862465c0e
1776917496624,2025721074919022,-9.78989,-0.39983168,1.5155296,6.1086525E-4,-0.0030543262,-6.1086525E-4,TREMOR,557862465c0e
1776917496632,2025721082914490,-9.775525,-0.39743748,1.496376,0.0018325958,-0.008552114,0.0,TREMOR,557862465c0e
1776917496640,2025721090910419,-9.775525,-0.39504328,1.5179238,0.002443461,-0.01160644,0.0,TREMOR,557862465c0e
1776917496648,2025721098904656,-9.773131,-0.37828386,1.5155296,0.0018325958,-0.010995574,0.0,TREMOR,557862465c0e
1776917496656,2025721106932046,-9.785102,-0.39743748,1.5251064,0.0012217305,-0.01282817,6.1086525E-4,TREMOR,557862465c0e
1776917496664,2025721114926129,-9.773131,-0.39025488,1.5394717,0.0,-0.004886922,6.1086525E-4,TREMOR,557862465c0e
1776917496672,2025721122923674,-9.753978,-0.39983168,1.5466543,-0.0018325958,0.004886922,0.0,TREMOR,557862465c0e
1776917496680,2025721130919372,-9.773131,-0.40462008,1.532289,-0.002443461,0.017715093,-0.002443461,TREMOR,557862465c0e
1776917496688,2025721138915993,-9.787497,-0.39025488,1.5179238,-0.004276057,0.028099801,-0.0018325958,TREMOR,557862465c0e
1776917496696,2025721146909923,-9.797073,-0.40701428,1.4915876,-0.0030543262,0.03481932,-0.0012217305,TREMOR,557862465c0e
1776917496704,2025721154905006,-9.799467,-0.40940848,1.4891934,-0.0018325958,0.028710667,-0.0012217305,TREMOR,557862465c0e
1776917496712,2025721162930165,-9.792285,-0.40701428,1.4820108,0.0,0.007941248,0.0012217305,TREMOR,557862465c0e
1776917496720,2025721170927710,-9.7803135,-0.39025488,1.5035586,0.0012217305,-0.0012217305,0.0,TREMOR,557862465c0e
1776917496728,2025721178922254,-9.76116,-0.4189853,1.5394717,6.1086525E-4,-0.005497787,0.0012217305,TREMOR,557862465c0e
1776917496736,2025721186918799,-9.773131,-0.39025488,1.5179238,6.1086525E-4,-0.0067195175,0.0036651916,TREMOR,557862465c0e
1776917496744,2025721194914805,-9.7803135,-0.39743748,1.5035586,0.0018325958,-0.004886922,0.0012217305,TREMOR,557862465c0e
1776917496752,2025721202910272,-9.782708,-0.4141969,1.508347,0.0,-0.0030543262,0.0,TREMOR,557862465c0e
1776917496760,2025721210934817,-9.775525,-0.40462008,1.5155296,0.0,-0.007330383,-6.1086525E-4,TREMOR,557862465c0e
1776917496768,2025721218933284,-9.811439,-0.39983168,1.520318,0.0012217305,-0.0061086523,0.0,TREMOR,557862465c0e
1776917496776,2025721226925983,-9.794679,-0.39025488,1.5251064,6.1086525E-4,-0.0030543262,6.1086525E-4,TREMOR,557862465c0e
1776917496784,2025721234922527,-9.773131,-0.40222588,1.5179238,0.0012217305,0.0036651916,6.1086525E-4,TREMOR,557862465c0e
1776917496792,2025721242918918,-9.78989,-0.40940848,1.5131354,0.0,0.004276057,6.1086525E-4,TREMOR,557862465c0e
1776917496800,2025721250913385,-9.8042555,-0.39983168,1.5059528,-6.1086525E-4,0.0030543262,6.1086525E-4,TREMOR,557862465c0e
1776917496808,2025721258909622,-9.77792,-0.40462008,1.5370775,0.0012217305,0.0,6.1086525E-4,TREMOR,557862465c0e
1776917496816,2025721266903474,-9.787497,-0.40222588,1.532289,0.0012217305,0.0,0.002443461,TREMOR,557862465c0e
1776917496824,2025721274932096,-9.792285,-0.39025488,1.5155296,0.002443461,6.1086525E-4,0.002443461,TREMOR,557862465c0e
1776917496832,2025721282927563,-9.799467,-0.39504328,1.5011644,0.002443461,0.0036651916,0.002443461,TREMOR,557862465c0e
1776917496840,2025721290922646,-9.77792,-0.40222588,1.5179238,0.002443461,6.1086525E-4,0.0012217305,TREMOR,557862465c0e
1776917496848,2025721298918268,-9.770737,-0.39025488,1.5035586,0.0018325958,-0.0018325958,0.0012217305,TREMOR,557862465c0e
1776917496856,2025721306913658,-9.7803135,-0.39743748,1.5059528,0.002443461,-0.004276057,0.002443461,TREMOR,557862465c0e
1776917496864,2025721314908434,-9.775525,-0.39743748,1.532289,6.1086525E-4,-0.0061086523,0.0,TREMOR,557862465c0e
1776917496872,2025721322906670,-9.794679,-0.39983168,1.5035586,0.0012217305,-0.002443461,0.0018325958,TREMOR,557862465c0e
1776917496880,2025721330931292,-9.8042555,-0.40940848,1.520318,0.0012217305,-0.004276057,0.0012217305,TREMOR,557862465c0e
1776917496888,2025721338928452,-9.785102,-0.39264908,1.5107412,6.1086525E-4,-0.0030543262,0.0012217305,TREMOR,557862465c0e
1776917496896,2025721346921765,-9.782708,-0.39743748,1.5155296,0.0018325958,-0.0012217305,0.0012217305,TREMOR,557862465c0e
1776917496904,2025721354917694,-9.792285,-0.3878607,1.4987702,0.0012217305,-0.004276057,-6.1086525E-4,TREMOR,557862465c0e
1776917496912,2025721362914393,-9.775525,-0.39743748,1.5107412,0.0012217305,-0.0067195175,6.1086525E-4,TREMOR,557862465c0e
1776917496920,2025721370909399,-9.7803135,-0.39983168,1.5227122,0.0018325958,-0.007941248,0.0012217305,TREMOR,557862465c0e
1776917496928,2025721378903559,-9.773131,-0.39504328,1.5227122,0.0018325958,-0.01038471,0.002443461,TREMOR,557862465c0e
1776917496936,2025721386930949,-9.794679,-0.39743748,1.5155296,0.0018325958,-0.009773844,0.0012217305,TREMOR,557862465c0e
1776917496944,2025721394926109,-9.768343,-0.39264908,1.5394717,0.0012217305,-0.0067195175,0.0,TREMOR,557862465c0e
1776917496952,2025721402922423,-9.785102,-0.38067806,1.5370775,6.1086525E-4,0.0,6.1086525E-4,TREMOR,557862465c0e
1776917496960,2025721410915967,-9.785102,-0.41180268,1.5298948,-0.0012217305,0.01160644,6.1086525E-4,TREMOR,557862465c0e
1776917496968,2025721418913512,-9.797073,-0.38307226,1.508347,-6.1086525E-4,0.015271631,6.1086525E-4,TREMOR,557862465c0e
1776917496976,2025721426908518,-9.78989,-0.39504328,1.4939818,0.002443461,0.01282817,0.0012217305,TREMOR,557862465c0e
1776917496984,2025721434903985,-9.80665,-0.4189853,1.4867992,0.0018325958,0.0036651916,0.0018325958,TREMOR,557862465c0e
1776917496992,2025721442930145,-9.801862,-0.4165911,1.5155296,0.002443461,-0.007330383,0.002443461,TREMOR,557862465c0e
1776917497000,2025721450926382,-9.773131,-0.3878607,1.5131354,0.002443461,-0.015271631,0.0018325958,TREMOR,557862465c0e
1776917497008,2025721458921234,-9.768343,-0.39743748,1.5346833,0.0036651916,-0.018325957,0.0030543262,TREMOR,557862465c0e
1776917497016,2025721466917548,-9.753978,-0.3878607,1.553837,0.002443461,-0.013439035,0.0018325958,TREMOR,557862465c0e
1776917497024,2025721474914092,-9.765948,-0.39504328,1.5442601,0.0,-0.0018325958,0.0018325958,TREMOR,557862465c0e
1776917497032,2025721482909560,-9.785102,-0.40462008,1.5370775,0.0,0.009162978,0.0018325958,TREMOR,557862465c0e
1776917497040,2025721490904335,-9.78989,-0.39264908,1.5442601,-6.1086525E-4,0.020158553,0.0,TREMOR,557862465c0e
1776917497048,2025721498930111,-9.811439,-0.3878607,1.4987702,-0.0012217305,0.02687807,0.0,TREMOR,557862465c0e
1776917497056,2025721506924886,-9.816227,-0.40222588,1.4580688,6.1086525E-4,0.013439035,-0.0018325958,TREMOR,557862465c0e
1776917497064,2025721514921584,-9.7803135,-0.39264908,1.5059528,0.002443461,-6.1086525E-4,0.002443461,TREMOR,557862465c0e
1776917497072,2025721522916667,-9.78989,-0.38307226,1.5131354,0.0,-0.009162978,6.1086525E-4,TREMOR,557862465c0e
1776917497080,2025721530914135,-9.773131,-0.39264908,1.5682021,0.0,-0.007941248,0.0012217305,TREMOR,557862465c0e
1776917497088,2025721538907448,-9.76116,-0.39743748,1.5490485,0.0,0.0036651916,0.0,TREMOR,557862465c0e
1776917497096,2025721546934454,-9.785102,-0.39264908,1.5131354,-6.1086525E-4,0.01160644,-6.1086525E-4,TREMOR,557862465c0e
1776917497104,2025721554931153,-9.785102,-0.40222588,1.4987702,-6.1086525E-4,0.017104227,6.1086525E-4,TREMOR,557862465c0e
1776917497112,2025721562925928,-9.797073,-0.39983168,1.5059528,-0.0012217305,0.016493361,0.0,TREMOR,557862465c0e
1776917497120,2025721570921549,-9.78989,-0.40940848,1.5131354,0.0,0.013439035,0.0,TREMOR,557862465c0e
1776917497128,2025721578916940,-9.78989,-0.40222588,1.5179238,0.0,0.0061086523,0.0012217305,TREMOR,557862465c0e
1776917497136,2025721586912638,-9.7803135,-0.3878607,1.508347,0.0,0.004886922,-6.1086525E-4,TREMOR,557862465c0e
1776917497144,2025721594908106,-9.7803135,-0.39743748,1.5035586,0.0012217305,0.0030543262,6.1086525E-4,TREMOR,557862465c0e
1776917497152,2025721602934881,-9.765948,-0.40462008,1.5155296,0.0,0.0018325958,0.0,TREMOR,557862465c0e
1776917497160,2025721610929272,-9.768343,-0.39983168,1.5155296,0.0,0.0067195175,6.1086525E-4,TREMOR,557862465c0e
1776917497168,2025721618925278,-9.7803135,-0.38307226,1.4987702,-0.0018325958,0.013439035,6.1086525E-4,TREMOR,557862465c0e
1776917497176,2025721626921976,-9.785102,-0.3878607,1.4987702,-0.0012217305,0.022602014,-0.002443461,TREMOR,557862465c0e
1776917497184,2025721634915444,-9.792285,-0.39983168,1.4867992,-6.1086525E-4,0.021991149,-0.0030543262,TREMOR,557862465c0e
1776917497192,2025721642913065,-9.797073,-0.4189853,1.472434,-6.1086525E-4,0.014049901,-0.0018325958,TREMOR,557862465c0e
1776917497200,2025721650908148,-9.768343,-0.40222588,1.4915876,6.1086525E-4,0.007941248,0.0,TREMOR,557862465c0e
1776917497208,2025721658903154,-9.785102,-0.40940848,1.5131354,0.0,0.002443461,0.0,TREMOR,557862465c0e
1776917497216,2025721666929698,-9.799467,-0.39983168,1.5131354,0.0,6.1086525E-4,-0.0030543262,TREMOR,557862465c0e
1776917497224,2025721674924704,-9.765948,-0.39743748,1.5059528,6.1086525E-4,0.002443461,0.002443461,TREMOR,557862465c0e
1776917497232,2025721682921326,-9.77792,-0.41180268,1.4772224,0.0012217305,0.004276057,0.0018325958,TREMOR,557862465c0e
1776917497240,2025721690915563,-9.77792,-0.37349546,1.4820108,0.0018325958,0.002443461,0.0,TREMOR,557862465c0e
1776917497248,2025721698910876,-9.792285,-0.38067806,1.5011644,0.0012217305,-0.0018325958,-6.1086525E-4,TREMOR,557862465c0e
1776917497256,2025721706909113,-9.792285,-0.39983168,1.496376,0.002443461,-0.004886922,0.0012217305,TREMOR,557862465c0e
1776917497264,2025721714934350,-9.787497,-0.40222588,1.4939818,0.0018325958,-0.004886922,0.0018325958,TREMOR,557862465c0e
1776917497272,2025721722930279,-9.785102,-0.4189853,1.5035586,6.1086525E-4,-0.007330383,0.0,TREMOR,557862465c0e
1776917497280,2025721730924824,-9.782708,-0.4141969,1.4915876,0.002443461,-0.010995574,-0.0012217305,TREMOR,557862465c0e
1776917497288,2025721738920830,-9.76116,-0.39264908,1.5011644,0.0018325958,-0.018936822,0.002443461,TREMOR,557862465c0e
1776917497296,2025721746916836,-9.765948,-0.39743748,1.5227122,0.0018325958,-0.019547688,0.0018325958,TREMOR,557862465c0e
1776917497304,2025721754911842,-9.7803135,-0.39983168,1.5251064,0.0012217305,-0.016493361,6.1086525E-4,TREMOR,557862465c0e
1776917497312,2025721762907848,-9.787497,-0.40462008,1.5107412,0.002443461,-0.009162978,6.1086525E-4,TREMOR,557862465c0e
1776917497320,2025721770932854,-9.768343,-0.3854665,1.4915876,0.0012217305,-0.0036651916,-6.1086525E-4,TREMOR,557862465c0e
1776917497328,2025721778929706,-9.787497,-0.39504328,1.4748282,-6.1086525E-4,0.0,-0.0018325958,TREMOR,557862465c0e
1776917497336,2025721786925173,-9.801862,-0.39504328,1.4987702,6.1086525E-4,0.0,0.0,TREMOR,557862465c0e
1776917497344,2025721794919872,-9.792285,-0.39504328,1.5131354,0.0012217305,-0.0030543262,0.0018325958,TREMOR,557862465c0e
1776917497352,2025721802915339,-9.787497,-0.40462008,1.5035586,6.1086525E-4,-0.005497787,0.0012217305,TREMOR,557862465c0e
1776917497360,2025721810911961,-9.797073,-0.39743748,1.4987702,0.0018325958,-0.0061086523,-6.1086525E-4,TREMOR,557862465c0e
1776917497368,2025721818908197,-9.785102,-0.39264908,1.5035586,0.0,-0.008552114,-6.1086525E-4,TREMOR,557862465c0e
1776917497376,2025721826933203,-9.799467,-0.3878607,1.5059528,6.1086525E-4,-0.009162978,0.0,TREMOR,557862465c0e
1776917497384,2025721834928286,-9.782708,-0.39743748,1.5155296,6.1086525E-4,-0.009773844,0.0,TREMOR,557862465c0e
1776917497392,2025721842925523,-9.773131,-0.39025488,1.532289,-6.1086525E-4,-0.005497787,6.1086525E-4,TREMOR,557862465c0e
1776917497400,2025721850920606,-9.7563715,-0.40940848,1.5227122,-0.0018325958,0.0036651916,0.0012217305,TREMOR,557862465c0e
1776917497408,2025721858916228,-9.785102,-0.39983168,1.5011644,-0.0012217305,0.014660766,6.1086525E-4,TREMOR,557862465c0e
1776917497416,2025721866911926,-9.8042555,-0.3854665,1.4820108,-6.1086525E-4,0.015882496,0.0012217305,TREMOR,557862465c0e
1776917497424,2025721874907701,-9.7803135,-0.40222588,1.5011644,0.0012217305,0.007330383,6.1086525E-4,TREMOR,557862465c0e
1776917497432,2025721882932015,-9.787497,-0.41180268,1.5179238,0.0012217305,0.0012217305,-6.1086525E-4,TREMOR,557862465c0e
1776917497440,2025721890928021,-9.797073,-0.3854665,1.532289,6.1086525E-4,-0.0067195175,0.0030543262,TREMOR,557862465c0e
1776917497448,2025721898925488,-9.7803135,-0.4165911,1.508347,0.0012217305,-0.004886922,0.0018325958,TREMOR,557862465c0e
1776917497456,2025721906921264,-9.768343,-0.39264908,1.5059528,0.0018325958,-0.004886922,0.002443461,TREMOR,557862465c0e
1776917497464,2025721914914808,-9.775525,-0.37588966,1.5059528,0.0018325958,-0.0061086523,-0.0012217305,TREMOR,557862465c0e
1776917497472,2025721922911660,-9.763555,-0.39743748,1.508347,0.0018325958,-0.004886922,0.0012217305,TREMOR,557862465c0e
1776917497480,2025721930907436,-9.77792,-0.39983168,1.5155296,6.1086525E-4,6.1086525E-4,0.0,TREMOR,557862465c0e
1776917497488,2025721938934442,-9.7803135,-0.40222588,1.520318,6.1086525E-4,0.0036651916,-6.1086525E-4,TREMOR,557862465c0e
1776917497496,2025721946928371,-9.773131,-0.39504328,1.508347,-6.1086525E-4,0.004276057,0.0018325958,TREMOR,557862465c0e
1776917497504,2025721954924992,-9.775525,-0.3878607,1.496376,0.0018325958,0.0030543262,0.0012217305,TREMOR,557862465c0e
1776917497512,2025721962918537,-9.77792,-0.39504328,1.520318,6.1086525E-4,0.0018325958,6.1086525E-4,TREMOR,557862465c0e
1776917497520,2025721970915389,-9.801862,-0.40222588,1.5131354,0.0,-6.1086525E-4,0.0012217305,TREMOR,557862465c0e
1776917497528,2025721978910856,-9.792285,-0.39504328,1.532289,6.1086525E-4,-0.0018325958,0.0012217305,TREMOR,557862465c0e
1776917497536,2025721986908016,-9.787497,-0.39504328,1.520318,0.0012217305,-0.0018325958,6.1086525E-4,TREMOR,557862465c0e
1776917497544,2025721994933945,-9.77792,-0.39504328,1.532289,0.0012217305,-0.0012217305,0.0012217305,TREMOR,557862465c0e
1776917497552,2025722002928028,-9.787497,-0.38307226,1.5346833,6.1086525E-4,-6.1086525E-4,0.0018325958,TREMOR,557862465c0e
1776917497560,2025722010922880,-9.785102,-0.39983168,1.5442601,0.0018325958,0.005497787,0.0018325958,TREMOR,557862465c0e
1776917497568,2025722018921656,-9.773131,-0.3854665,1.5179238,0.0012217305,0.01282817,0.002443461,TREMOR,557862465c0e
1776917497576,2025722026914277,-9.775525,-0.39504328,1.4867992,0.0012217305,0.018325957,0.002443461,TREMOR,557862465c0e
1776917497584,2025722034911514,-9.77792,-0.37828386,1.496376,0.0030543262,0.013439035,0.002443461,TREMOR,557862465c0e
1776917497592,2025722042907751,-9.773131,-0.40222588,1.5107412,0.002443461,0.01038471,0.002443461,TREMOR,557862465c0e
1776917497600,2025722050932987,-9.770737,-0.39504328,1.5059528,0.002443461,0.008552114,0.0012217305,TREMOR,557862465c0e
1776917497608,2025722058928378,-9.782708,-0.39025488,1.5227122,0.0018325958,0.007941248,6.1086525E-4,TREMOR,557862465c0e
1776917497616,2025722066923538,-9.782708,-0.38067806,1.5035586,0.0,0.01160644,0.002443461,TREMOR,557862465c0e
1776917497624,2025722074919544,-9.775525,-0.40222588,1.4891934,0.0018325958,0.01282817,6.1086525E-4,TREMOR,557862465c0e
1776917497632,2025722082914550,-9.794679,-0.39743748,1.4939818,0.0012217305,0.0067195175,-6.1086525E-4,TREMOR,557862465c0e
1776917497640,2025722090910248,-9.78989,-0.3878607,1.5179238,6.1086525E-4,0.0018325958,6.1086525E-4,TREMOR,557862465c0e
1776917497648,2025722098905331,-9.773131,-0.40222588,1.5155296,0.0012217305,0.0012217305,6.1086525E-4,TREMOR,557862465c0e
1776917497656,2025722106933337,-9.782708,-0.37828386,1.508347,-0.0012217305,0.004276057,0.0018325958,TREMOR,557862465c0e
1776917497664,2025722114927805,-9.78989,-0.39504328,1.4748282,6.1086525E-4,0.0018325958,0.002443461,TREMOR,557862465c0e
1776917497672,2025722122924503,-9.773131,-0.3854665,1.4628572,0.0018325958,-0.009773844,0.0012217305,TREMOR,557862465c0e
1776917497680,2025722130918586,-9.7563715,-0.3854665,1.508347,0.0018325958,-0.015271631,0.0018325958,TREMOR,557862465c0e
1776917497688,2025722138914900,-9.787497,-0.40222588,1.5251064,-6.1086525E-4,-0.015271631,-0.0012217305,TREMOR,557862465c0e
1776917497696,2025722146910598,-9.7803135,-0.3854665,1.520318,-6.1086525E-4,-0.010995574,-0.0012217305,TREMOR,557862465c0e
1776917497704,2025722154907219,-9.77792,-0.3878607,1.5059528,-0.0012217305,-0.002443461,6.1086525E-4,TREMOR,557862465c0e
1776917497712,2025722162932841,-9.765948,-0.40940848,1.5059528,-0.0012217305,0.0012217305,-0.0012217305,TREMOR,557862465c0e
1776917497720,2025722170927616,-9.794679,-0.38307226,1.496376,-0.0012217305,0.0030543262,-6.1086525E-4,TREMOR,557862465c0e
1776917497728,2025722178923314,-9.785102,-0.39264908,1.5298948,-0.0012217305,-0.0018325958,-6.1086525E-4,TREMOR,557862465c0e
1776917497736,2025722186918320,-9.78989,-0.39504328,1.5442601,0.0,-0.002443461,-6.1086525E-4,TREMOR,557862465c0e
1776917497744,2025722194913711,-9.77792,-0.38067806,1.5107412,0.0,-0.0030543262,-6.1086525E-4,TREMOR,557862465c0e
1776917497752,2025722202910409,-9.8042555,-0.3854665,1.520318,-6.1086525E-4,-0.0061086523,6.1086525E-4,TREMOR,557862465c0e
1776917497760,2025722210907262,-9.765948,-0.39264908,1.5179238,0.0018325958,-0.01038471,0.0,TREMOR,557862465c0e
1776917497768,2025722218932191,-9.77792,-0.39743748,1.5370775,6.1086525E-4,-0.009773844,6.1086525E-4,TREMOR,557862465c0e
1776917497776,2025722226927658,-9.794679,-0.3854665,1.5298948,0.0018325958,-0.008552114,-6.1086525E-4,TREMOR,557862465c0e
1776917497784,2025722234923587,-9.78989,-0.38307226,1.5275006,6.1086525E-4,-0.005497787,6.1086525E-4,TREMOR,557862465c0e
1776917497792,2025722242919286,-9.785102,-0.39264908,1.5107412,6.1086525E-4,-0.002443461,-0.0012217305,TREMOR,557862465c0e
1776917497800,2025722250914753,-9.794679,-0.39025488,1.5346833,0.0012217305,0.0067195175,6.1086525E-4,TREMOR,557862465c0e
1776917497808,2025722258910144,-9.770737,-0.37828386,1.5155296,0.0,0.01282817,6.1086525E-4,TREMOR,557862465c0e
1776917497816,2025722266905765,-9.801862,-0.39743748,1.5107412,-6.1086525E-4,0.016493361,0.0,TREMOR,557862465c0e
1776917497824,2025722274933233,-9.797073,-0.39264908,1.484405,0.0018325958,0.016493361,6.1086525E-4,TREMOR,557862465c0e
1776917497832,2025722282927008,-9.785102,-0.37828386,1.472434,6.1086525E-4,0.010995574,-0.0012217305,TREMOR,557862465c0e
1776917497840,2025722290923629,-9.773131,-0.3878607,1.496376,0.0018325958,0.002443461,-6.1086525E-4,TREMOR,557862465c0e
1776917497848,2025722298918174,-9.7803135,-0.39264908,1.5107412,-6.1086525E-4,-6.1086525E-4,0.0012217305,TREMOR,557862465c0e
1776917497856,2025722306913180,-9.773131,-0.40940848,1.5251064,0.0018325958,0.0,0.0,TREMOR,557862465c0e
1776917497864,2025722314911109,-9.763555,-0.3854665,1.508347,0.0012217305,0.0030543262,6.1086525E-4,TREMOR,557862465c0e
1776917497872,2025722322906730,-9.773131,-0.40222588,1.5035586,0.0012217305,0.007330383,0.0,TREMOR,557862465c0e
1776917497880,2025722330932352,-9.787497,-0.40701428,1.4891934,6.1086525E-4,0.0061086523,-6.1086525E-4,TREMOR,557862465c0e
1776917497888,2025722338926435,-9.78989,-0.3878607,1.5011644,0.0,0.002443461,0.0012217305,TREMOR,557862465c0e
1776917497896,2025722346923056,-9.787497,-0.39264908,1.5155296,6.1086525E-4,0.0012217305,0.0018325958,TREMOR,557862465c0e
1776917497904,2025722354919370,-9.770737,-0.39983168,1.5179238,-0.0012217305,0.0018325958,0.0018325958,TREMOR,557862465c0e
1776917497912,2025722362914837,-9.77792,-0.39983168,1.5035586,-6.1086525E-4,0.0036651916,-6.1086525E-4,TREMOR,557862465c0e
1776917497920,2025722370910536,-9.792285,-0.39025488,1.4939818,0.0,0.004886922,-0.0036651916,TREMOR,557862465c0e
1776917497928,2025722378936080,-9.7803135,-0.39983168,1.4987702,-6.1086525E-4,0.0030543262,-6.1086525E-4,TREMOR,557862465c0e
1776917497936,2025722386930548,-9.78989,-0.41180268,1.4915876,0.0,0.0012217305,-0.0012217305,TREMOR,557862465c0e
1776917497944,2025722394927785,-9.782708,-0.39983168,1.5275006,0.0,-0.004276057,-0.0012217305,TREMOR,557862465c0e
1776917497952,2025722402922868,-9.799467,-0.39743748,1.5275006,-0.0012217305,-0.0061086523,-6.1086525E-4,TREMOR,557862465c0e
1776917497960,2025722410918489,-9.785102,-0.39264908,1.5059528,6.1086525E-4,-0.0067195175,6.1086525E-4,TREMOR,557862465c0e
1776917497968,2025722418915110,-9.770737,-0.3878607,1.5107412,0.0,-0.0061086523,6.1086525E-4,TREMOR,557862465c0e
1776917497976,2025722426909578,-9.78989,-0.38307226,1.520318,0.0012217305,-0.008552114,-6.1086525E-4,TREMOR,557862465c0e
1776917497984,2025722434904969,-9.785102,-0.39983168,1.4939818,-0.0012217305,-0.008552114,-0.0018325958,TREMOR,557862465c0e
1776917497992,2025722442931744,-9.782708,-0.39264908,1.5251064,6.1086525E-4,-0.009773844,-6.1086525E-4,TREMOR,557862465c0e
1776917498000,2025722450926904,-9.799467,-0.39025488,1.5275006,0.0,-0.01038471,-0.0012217305,TREMOR,557862465c0e
1776917498008,2025722458922217,-9.77792,-0.39264908,1.5610195,-6.1086525E-4,-0.002443461,-0.0018325958,TREMOR,557862465c0e
1776917498016,2025722466917993,-9.7803135,-0.4213795,1.5466543,-6.1086525E-4,0.008552114,-0.002443461,TREMOR,557862465c0e
1776917498024,2025722474914306,-9.787497,-0.40462008,1.5227122,-0.002443461,0.020158553,-0.0018325958,TREMOR,557862465c0e
1776917498032,2025722482909389,-9.801862,-0.39743748,1.5155296,0.0,0.02565634,-0.0012217305,TREMOR,557862465c0e
1776917498040,2025722490935165,-9.775525,-0.40222588,1.5131354,-0.0012217305,0.02565634,-0.0018325958,TREMOR,557862465c0e
1776917498048,2025722498930248,-9.7803135,-0.39025488,1.484405,0.0018325958,0.020158553,0.0012217305,TREMOR,557862465c0e
1776917498056,2025722506926330,-9.787497,-0.39264908,1.4796166,0.002443461,0.007330383,0.0012217305,TREMOR,557862465c0e
1776917498064,2025722514923260,-9.773131,-0.38067806,1.5131354,0.0030543262,-6.1086525E-4,0.0018325958,TREMOR,557862465c0e
1776917498072,2025722522916804,-9.785102,-0.37588966,1.532289,0.0012217305,-0.0012217305,0.002443461,TREMOR,557862465c0e
1776917498080,2025722530913964,-9.794679,-0.37349546,1.5179238,0.002443461,6.1086525E-4,0.0012217305,TREMOR,557862465c0e
1776917498088,2025722538909739,-9.785102,-0.3878607,1.5035586,0.002443461,0.0018325958,0.0,TREMOR,557862465c0e
1776917498096,2025722546904822,-9.775525,-0.40462008,1.4987702,6.1086525E-4,0.0067195175,6.1086525E-4,TREMOR,557862465c0e
1776917498104,2025722554931828,-9.770737,-0.39983168,1.508347,-0.0012217305,0.007941248,-6.1086525E-4,TREMOR,557862465c0e
1776917498112,2025722562925757,-9.792285,-0.3854665,1.5131354,-0.0018325958,0.01038471,-0.002443461,TREMOR,557862465c0e
1776917498120,2025722570922609,-9.785102,-0.38307226,1.4891934,-0.0012217305,0.009162978,-0.0012217305,TREMOR,557862465c0e
1776917498128,2025722578916538,-9.7803135,-0.39983168,1.496376,-0.0012217305,0.007941248,-0.002443461,TREMOR,557862465c0e
1776917498136,2025722586913083,-9.78989,-0.39743748,1.4915876,-0.002443461,0.0067195175,-0.0012217305,TREMOR,557862465c0e
1776917498144,2025722594908858,-9.792285,-0.40222588,1.5179238,0.0,0.002443461,-6.1086525E-4,TREMOR,557862465c0e
1776917498152,2025722602933787,-9.782708,-0.41180268,1.520318,-0.0018325958,0.0,-0.0018325958,TREMOR,557862465c0e
1776917498160,2025722610930024,-9.785102,-0.39025488,1.5227122,-0.0018325958,0.0,0.0,TREMOR,557862465c0e
1776917498168,2025722618926953,-9.7803135,-0.40462008,1.5107412,-0.0018325958,6.1086525E-4,0.0018325958,TREMOR,557862465c0e
1776917498176,2025722626921498,-9.785102,-0.39025488,1.496376,-6.1086525E-4,0.0030543262,0.0,TREMOR,557862465c0e
1776917498184,2025722634918042,-9.77792,-0.39264908,1.4939818,-6.1086525E-4,0.002443461,0.0012217305,TREMOR,557862465c0e
1776917498192,2025722642913433,-9.7803135,-0.38307226,1.5011644,-0.0018325958,0.0,-6.1086525E-4,TREMOR,557862465c0e
1776917498200,2025722650908900,-9.763555,-0.39264908,1.4987702,-6.1086525E-4,6.1086525E-4,-0.002443461,TREMOR,557862465c0e
1776917498208,2025722658933829,-9.78989,-0.40462008,1.4891934,-0.0018325958,-0.0012217305,-0.0012217305,TREMOR,557862465c0e
1776917498216,2025722666931066,-9.801862,-0.3854665,1.5059528,-0.0012217305,-0.004276057,-0.0030543262,TREMOR,557862465c0e
1776917498224,2025722674925457,-9.794679,-0.37828386,1.5035586,6.1086525E-4,-0.01038471,-0.0012217305,TREMOR,557862465c0e
1776917498232,2025722682922078,-9.773131,-0.37588966,1.5227122,-0.0012217305,-0.009773844,-6.1086525E-4,TREMOR,557862465c0e
1776917498240,2025722690919700,-9.7803135,-0.39504328,1.520318,-6.1086525E-4,-0.009162978,-6.1086525E-4,TREMOR,557862465c0e
1776917498248,2025722698913167,-9.785102,-0.40462008,1.5298948,-6.1086525E-4,-0.0061086523,-0.0018325958,TREMOR,557862465c0e
1776917498256,2025722706907712,-9.782708,-0.40222588,1.5155296,-6.1086525E-4,-0.0018325958,-0.0018325958,TREMOR,557862465c0e
1776917498264,2025722714934796,-9.782708,-0.39743748,1.5131354,-6.1086525E-4,6.1086525E-4,0.0,TREMOR,557862465c0e
1776917498272,2025722722931109,-9.787497,-0.40701428,1.484405,-0.0018325958,0.0,-0.0018325958,TREMOR,557862465c0e
1776917498280,2025722730925576,-9.782708,-0.39504328,1.5059528,-6.1086525E-4,-0.0018325958,-0.0018325958,TREMOR,557862465c0e
1776917498288,2025722738921813,-9.768343,-0.37828386,1.5059528,0.0,-0.0067195175,-6.1086525E-4,TREMOR,557862465c0e
1776917498296,2025722746916973,-9.763555,-0.39264908,1.5059528,-6.1086525E-4,-0.009162978,0.002443461,TREMOR,557862465c0e
1776917498304,2025722754913825,-9.770737,-0.39264908,1.5227122,0.0,-0.010995574,-6.1086525E-4,TREMOR,557862465c0e
1776917498312,2025722762907985,-9.770737,-0.39025488,1.5107412,0.0018325958,-0.01038471,0.0,TREMOR,557862465c0e
1776917498320,2025722770934145,-9.785102,-0.39025488,1.4915876,0.0,-0.01038471,6.1086525E-4,TREMOR,557862465c0e
1776917498328,2025722778930228,-9.773131,-0.39504328,1.520318,6.1086525E-4,-0.0067195175,0.0,TREMOR,557862465c0e
1776917498336,2025722786924927,-9.787497,-0.41180268,1.5155296,-0.0018325958,-0.008552114,-6.1086525E-4,TREMOR,557862465c0e
1776917498344,2025722794922164,-9.785102,-0.37828386,1.5298948,6.1086525E-4,-0.009773844,-0.0018325958,TREMOR,557862465c0e
1776917498352,2025722802917862,-9.78989,-0.39504328,1.532289,-6.1086525E-4,-0.01038471,-6.1086525E-4,TREMOR,557862465c0e
1776917498360,2025722810912714,-9.787497,-0.39743748,1.520318,6.1086525E-4,-0.009773844,0.0,TREMOR,557862465c0e
1776917498368,2025722818908105,-9.768343,-0.3878607,1.508347,6.1086525E-4,-0.008552114,-0.0012217305,TREMOR,557862465c0e
1776917498376,2025722826903495,-9.765948,-0.38067806,1.532289,-0.0012217305,-0.007941248,-0.0012217305,TREMOR,557862465c0e
1776917498384,2025722834930501,-9.78989,-0.3854665,1.5442601,-6.1086525E-4,-0.005497787,0.0,TREMOR,557862465c0e
1776917498392,2025722842925046,-9.773131,-0.39743748,1.5107412,0.0,-0.004276057,0.0,TREMOR,557862465c0e
1776917498400,2025722850922898,-9.787497,-0.39025488,1.5298948,-0.0012217305,-0.0036651916,-0.002443461,TREMOR,557862465c0e
1776917498408,2025722858915750,-9.782708,-0.39743748,1.5346833,-0.002443461,-0.0030543262,-0.0012217305,TREMOR,557862465c0e
1776917498416,2025722866913372,-9.785102,-0.39264908,1.5370775,-6.1086525E-4,-0.0030543262,-0.0018325958,TREMOR,557862465c0e
1776917498424,2025722874907147,-9.787497,-0.39264908,1.5562311,-0.0018325958,-0.0018325958,-0.0018325958,TREMOR,557862465c0e
1776917498432,2025722882934307,-9.773131,-0.38307226,1.5514427,-0.0012217305,6.1086525E-4,0.0,TREMOR,557862465c0e
1776917498440,2025722890929313,-9.77792,-0.37588966,1.5370775,0.0,0.008552114,-0.0012217305,TREMOR,557862465c0e
1776917498448,2025722898925396,-9.773131,-0.3878607,1.520318,-0.002443461,0.01282817,0.0,TREMOR,557862465c0e
1776917498456,2025722906921094,-9.794679,-0.39743748,1.520318,-6.1086525E-4,0.010995574,-0.002443461,TREMOR,557862465c0e
1776917498464,2025722914916715,-9.782708,-0.39983168,1.5035586,0.0,0.009162978,0.0,TREMOR,557862465c0e
1776917498472,2025722922912798,-9.782708,-0.39504328,1.5298948,0.0,0.0061086523,0.0,TREMOR,557862465c0e
1776917498480,2025722930906881,-9.768343,-0.39743748,1.5442601,-0.0018325958,0.0067195175,0.0,TREMOR,557862465c0e
1776917498488,2025722938934349,-9.785102,-0.38067806,1.5275006,-6.1086525E-4,0.01282817,-6.1086525E-4,TREMOR,557862465c0e
1776917498496,2025722946929662,-9.785102,-0.40222588,1.5346833,-0.002443461,0.018325957,-0.0012217305,TREMOR,557862465c0e
1776917498504,2025722954924130,-9.775525,-0.39983168,1.5011644,-0.004276057,0.021991149,0.0,TREMOR,557862465c0e
1776917498512,2025722962919905,-9.785102,-0.38067806,1.4939818,-0.0036651916,0.020158553,-0.0012217305,TREMOR,557862465c0e
1776917498520,2025722970914988,-9.782708,-0.37828386,1.4891934,-0.0018325958,0.013439035,-0.0018325958,TREMOR,557862465c0e
1776917498528,2025722978912763,-9.792285,-0.39504328,1.4772224,-0.002443461,0.008552114,-0.002443461,TREMOR,557862465c0e
1776917498536,2025722986907308,-9.78989,-0.40222588,1.496376,-0.0036651916,-0.0018325958,-0.0030543262,TREMOR,557862465c0e
1776917498544,2025722994904160,-9.765948,-0.38067806,1.520318,-0.002443461,-0.01038471,-6.1086525E-4,TREMOR,557862465c0e
1776917498552,2025723002929705,-9.770737,-0.40222588,1.5227122,-0.0030543262,-0.009773844,-0.002443461,TREMOR,557862465c0e
1776917498560,2025723010925172,-9.775525,-0.40701428,1.5155296,-0.002443461,-0.007330383,-0.002443461,TREMOR,557862465c0e
1776917498568,2025723018919563,-9.7803135,-0.39025488,1.5035586,-0.0036651916,-0.0036651916,-0.002443461,TREMOR,557862465c0e
1776917498576,2025723026916261,-9.785102,-0.40462008,1.5011644,-0.0030543262,-0.0018325958,-6.1086525E-4,TREMOR,557862465c0e
1776917498584,2025723034910729,-9.782708,-0.39264908,1.496376,-0.002443461,-0.0036651916,-0.0018325958,TREMOR,557862465c0e
1776917498592,2025723042907889,-9.794679,-0.39264908,1.5131354,-0.0018325958,-0.009162978,-0.002443461,TREMOR,557862465c0e
1776917498600,2025723050932587,-9.799467,-0.39264908,1.5107412,-6.1086525E-4,-0.012217305,-6.1086525E-4,TREMOR,557862465c0e
1776917498608,2025723058929131,-9.768343,-0.39983168,1.5179238,-0.0012217305,-0.015882496,0.0,TREMOR,557862465c0e
1776917498616,2025723066924830,-9.799467,-0.39504328,1.5394717,-0.0012217305,-0.015271631,-0.0018325958,TREMOR,557862465c0e
1776917498624,2025723074920913,-9.787497,-0.39264908,1.5251064,-6.1086525E-4,-0.015882496,-0.002443461,TREMOR,557862465c0e
1776917498632,2025723082914688,-9.775525,-0.39504328,1.520318,-6.1086525E-4,-0.013439035,-0.0018325958,TREMOR,557862465c0e
1776917498640,2025723090910694,-9.775525,-0.40222588,1.5251064,0.0,-0.01282817,-0.002443461,TREMOR,557862465c0e
1776917498648,2025723098906777,-9.782708,-0.40462008,1.5275006,0.0,-0.010995574,-0.0012217305,TREMOR,557862465c0e
1776917498656,2025723106933783,-9.763555,-0.38307226,1.5275006,0.0,-0.0061086523,-6.1086525E-4,TREMOR,557862465c0e
1776917498664,2025723114928327,-9.7803135,-0.39264908,1.541866,-6.1086525E-4,0.0012217305,-0.0012217305,TREMOR,557862465c0e
1776917498672,2025723122923949,-9.797073,-0.40222588,1.5442601,-0.0018325958,0.0067195175,-0.0018325958,TREMOR,557862465c0e
1776917498680,2025723130920878,-9.801862,-0.39504328,1.5370775,0.0,0.010995574,-6.1086525E-4,TREMOR,557862465c0e
1776917498688,2025723138917268,-9.787497,-0.39025488,1.508347,0.0,0.009162978,6.1086525E-4,TREMOR,557862465c0e
1776917498696,2025723146910505,-9.801862,-0.4189853,1.5035586,0.0012217305,0.004276057,0.0,TREMOR,557862465c0e
1776917498704,2025723154908050,-9.811439,-0.39504328,1.5155296,0.0,-0.0030543262,-0.0012217305,TREMOR,557862465c0e
1776917498712,2025723162932363,-9.7803135,-0.3878607,1.5251064,0.0012217305,-0.007941248,-6.1086525E-4,TREMOR,557862465c0e
1776917498720,2025723170928293,-9.787497,-0.39983168,1.5490485,0.0,-0.0067195175,0.0,TREMOR,557862465c0e
1776917498728,2025723178924606,-9.7803135,-0.37828386,1.5490485,0.0,-0.0036651916,6.1086525E-4,TREMOR,557862465c0e
1776917498736,2025723186921843,-9.775525,-0.39025488,1.5442601,0.0,0.0012217305,0.0,TREMOR,557862465c0e
1776917498744,2025723194915388,-9.7803135,-0.39025488,1.5298948,-6.1086525E-4,0.0061086523,-0.0012217305,TREMOR,557862465c0e
1776917498752,2025723202910547,-9.785102,-0.40462008,1.5227122,-0.0012217305,0.007941248,-0.0030543262,TREMOR,557862465c0e
1776917498760,2025723210906861,-9.782708,-0.39743748,1.5251064,-0.0018325958,0.010995574,0.0,TREMOR,557862465c0e
1776917498768,2025723218933329,-9.770737,-0.39983168,1.5251064,-0.0018325958,0.01282817,-0.0012217305,TREMOR,557862465c0e
1776917498776,2025723226928412,-9.765948,-0.39264908,1.508347,-0.0018325958,0.012217305,-0.0018325958,TREMOR,557862465c0e
1776917498784,2025723234924648,-9.809045,-0.39504328,1.5059528,-0.0012217305,0.007941248,-0.0018325958,TREMOR,557862465c0e
1776917498792,2025723242920654,-9.782708,-0.39983168,1.5155296,-0.0012217305,0.0012217305,0.0,TREMOR,557862465c0e
1776917498800,2025723250914891,-9.792285,-0.39504328,1.5251064,-0.0018325958,-0.0012217305,6.1086525E-4,TREMOR,557862465c0e
1776917498808,2025723258909666,-9.770737,-0.39983168,1.5346833,-0.0012217305,6.1086525E-4,-0.0018325958,TREMOR,557862465c0e
1776917498816,2025723266906211,-9.782708,-0.39264908,1.508347,-6.1086525E-4,0.0018325958,-6.1086525E-4,TREMOR,557862465c0e
1776917498824,2025723274932448,-9.785102,-0.39504328,1.508347,-6.1086525E-4,0.002443461,-0.0018325958,TREMOR,557862465c0e
