# epoch_ms,event_ts_ns,AX,AY,AZ,GX,GY,GZ,label,sessionID
1776793502607,1901727058886188,-2.3080103,1.2449849,-9.308656,NaN,NaN,NaN,TREMOR,026369732c41
1776793502616,1901727067614563,-2.327164,1.2641385,-9.306262,-0.007941248,0.0036651916,-0.0012217305,TREMOR,026369732c41
1776793502624,1901727075610477,-2.3127987,1.271321,-9.320627,-0.007941248,0.0036651916,-0.0012217305,TREMOR,026369732c41
1776793502632,1901727083606775,-2.336741,1.3024458,-9.306262,-0.007941248,0.0036651916,-0.0012217305,TREMOR,026369732c41
1776793502640,1901727091603458,-2.3415294,1.2761095,-9.323022,-0.007941248,0.0036651916,-0.0012217305,TREMOR,026369732c41
1776793502648,1901727099598449,-2.3343468,1.2880806,-9.315839,-0.007941248,0.0036651916,-0.0012217305,TREMOR,026369732c41
1776793502656,1901727107594209,-2.3415294,1.3096284,-9.320627,-0.007941248,0.0036651916,-0.0012217305,TREMOR,026369732c41
1776793502664,1901727115619354,-2.3535004,1.2785037,-9.320627,-0.007941248,0.0036651916,-0.0012217305,TREMOR,026369732c41
1776793502672,1901727123616037,-2.3750482,1.3144168,-9.306262,-0.007941248,0.0036651916,-0.0012217305,TREMOR,026369732c41
1776793502680,1901727131610104,-2.3702598,1.2952632,-9.306262,-0.007941248,0.0036651916,-0.0012217305,TREMOR,026369732c41
1776793502688,1901727139604864,-2.3415294,1.2904748,-9.31105,-0.007941248,0.0036651916,-0.0012217305,TREMOR,026369732c41
1776793502696,1901727147600932,-2.3295584,1.2880806,-9.320627,-0.007941248,0.0036651916,-0.0012217305,TREMOR,026369732c41
1776793502704,1901727155595923,-2.327164,1.2737153,-9.315839,-0.007941248,0.0036651916,-0.0012217305,TREMOR,026369732c41
1776793502712,1901727163592914,-2.2864625,1.2785037,-9.308656,-0.007941248,0.0036651916,-0.0012217305,TREMOR,026369732c41
1776793502720,1901727171619674,-2.2984335,1.2880806,-9.294291,-0.004276057,0.010995574,-0.0067195175,TREMOR,026369732c41
1776793502728,1901727179614972,-2.303222,1.2641385,-9.291897,-0.004276057,0.010995574,-0.007330383,TREMOR,026369732c41
1776793502736,1901727187610425,-2.2697031,1.2665327,-9.308656,-0.0036651916,0.014660766,-0.007941248,TREMOR,026369732c41
1776793502744,1901727195605724,-2.291251,1.2641385,-9.315839,-0.0030543262,0.013439035,-0.007941248,TREMOR,026369732c41
1776793502752,1901727203601176,-2.2840683,1.271321,-9.320627,-0.0030543262,0.014049901,-0.009773844,TREMOR,026369732c41
1776793502760,1901727211597474,-2.2768857,1.2401965,-9.325416,-0.0012217305,0.014660766,-0.010995574,TREMOR,026369732c41
1776793502768,1901727219591311,-2.2649148,1.2378023,-9.315839,-0.002443461,0.017715093,-0.009773844,TREMOR,026369732c41
1776793502776,1901727227618071,-2.2936451,1.2258313,-9.330204,-6.1086525E-4,0.017715093,-0.01282817,TREMOR,026369732c41
1776793502784,1901727235614678,-2.2720973,1.2042835,-9.325416,-0.002443461,0.018936822,-0.015271631,TREMOR,026369732c41
1776793502792,1901727243610592,-2.2720973,1.2138603,-9.332599,-0.0012217305,0.018325957,-0.013439035,TREMOR,026369732c41
1776793502800,1901727251604197,-2.2936451,1.2114661,-9.330204,-0.002443461,0.015271631,-0.014049901,TREMOR,026369732c41
1776793502808,1901727259601958,-2.2744915,1.1923125,-9.334992,-0.002443461,0.016493361,-0.013439035,TREMOR,026369732c41
1776793502816,1901727267596410,-2.2649148,1.1947067,-9.3421755,-0.004276057,0.018325957,-0.014660766,TREMOR,026369732c41
1776793502824,1901727275590632,-2.2601264,1.1947067,-9.315839,-0.004886922,0.017715093,-0.014660766,TREMOR,026369732c41
1776793502832,1901727283618546,-2.2577322,1.2018893,-9.332599,-0.0036651916,0.018936822,-0.01160644,TREMOR,026369732c41
1776793502840,1901727291614536,-2.2361844,1.2162545,-9.315839,-0.0036651916,0.018936822,-0.009162978,TREMOR,026369732c41
1776793502848,1901727299610219,-2.2218192,1.2258313,-9.337387,-0.005497787,0.017715093,-0.007330383,TREMOR,026369732c41
1776793502856,1901727307604441,-2.2218192,1.2330139,-9.301474,-0.005497787,0.02321288,-0.009162978,TREMOR,026369732c41
1776793502864,1901727315598894,-2.2337902,1.2378023,-9.31105,-0.007941248,0.02321288,-0.007941248,TREMOR,026369732c41
1776793502872,1901727323596423,-2.2266076,1.2425907,-9.313444,-0.007330383,0.026267206,-0.009773844,TREMOR,026369732c41
1776793502880,1901727331591798,-2.2290018,1.2569559,-9.308656,-0.009773844,0.028099801,-0.008552114,TREMOR,026369732c41
1776793502888,1901727339616635,-2.219425,1.271321,-9.315839,-0.01038471,0.028710667,-0.009162978,TREMOR,026369732c41
1776793502896,1901727347612703,-2.231396,1.2880806,-9.301474,-0.009773844,0.02687807,-0.009773844,TREMOR,026369732c41
1776793502904,1901727355611155,-2.2170308,1.3335704,-9.303867,-0.009773844,0.02687807,-0.009773844,TREMOR,026369732c41
1776793502912,1901727363606762,-2.2026656,1.3263878,-9.299079,-0.009162978,0.025045475,-0.007941248,TREMOR,026369732c41
1776793502920,1901727371600598,-2.2098482,1.340753,-9.289502,-0.0061086523,0.025045475,-0.004886922,TREMOR,026369732c41
1776793502928,1901727379596897,-2.2266076,1.3311762,-9.289502,-0.0030543262,0.02321288,-0.0036651916,TREMOR,026369732c41
1776793502936,1901727387590503,-2.147599,1.3479356,-9.315839,0.0012217305,0.022602014,-0.0018325958,TREMOR,026369732c41
1776793502944,1901727395617186,-2.1859062,1.3431472,-9.323022,0.004276057,0.015882496,-6.1086525E-4,TREMOR,026369732c41
1776793502952,1901727403611947,-2.195483,1.3335704,-9.323022,0.0061086523,0.009162978,0.0,TREMOR,026369732c41
1776793502960,1901727411610398,-2.171541,1.316811,-9.308656,0.007330383,0.004276057,0.002443461,TREMOR,026369732c41
1776793502968,1901727419605159,-2.1811178,1.3072342,-9.301474,0.007941248,-0.002443461,0.0012217305,TREMOR,026369732c41
1776793502976,1901727427599380,-2.1859062,1.2976574,-9.31105,0.009773844,-0.004276057,-0.0012217305,TREMOR,026369732c41
1776793502984,1901727435595987,-2.1787236,1.2617443,-9.315839,0.008552114,-0.009773844,-0.0018325958,TREMOR,026369732c41
1776793502992,1901727443590439,-2.2026656,1.2425907,-9.320627,0.008552114,-0.01282817,-0.002443461,TREMOR,026369732c41
1776793503000,1901727451618045,-2.2050598,1.2306197,-9.323022,0.007330383,-0.014660766,-0.002443461,TREMOR,026369732c41
1776793503008,1901727459613728,-2.2385786,1.2258313,-9.323022,0.0067195175,-0.016493361,-0.0030543262,TREMOR,026369732c41
1776793503016,1901727467606642,-2.2481554,1.2018893,-9.3182335,0.004886922,-0.016493361,-0.005497787,TREMOR,026369732c41
1776793503024,1901727475604248,-2.2888567,1.1923125,-9.31105,0.0061086523,-0.016493361,-0.0067195175,TREMOR,026369732c41
1776793503032,1901727483601470,-2.2744915,1.1923125,-9.315839,0.004886922,-0.01282817,-0.0036651916,TREMOR,026369732c41
1776793503040,1901727491595615,-2.2960393,1.1971009,-9.334992,0.0036651916,-0.012217305,-0.004886922,TREMOR,026369732c41
1776793503048,1901727499590297,-2.2864625,1.2138603,-9.323022,6.1086525E-4,-0.009773844,-0.005497787,TREMOR,026369732c41
1776793503056,1901727507616442,-2.315193,1.2186487,-9.320627,-6.1086525E-4,-0.007330383,-0.0061086523,TREMOR,026369732c41
1776793503064,1901727515613126,-2.3199813,1.2186487,-9.308656,0.0,-0.004276057,-0.0030543262,TREMOR,026369732c41
1776793503072,1901727523608732,-2.3199813,1.2210429,-9.306262,0.0,-0.004886922,-0.0036651916,TREMOR,026369732c41
1776793503080,1901727531602646,-2.3343468,1.2330139,-9.323022,-0.0012217305,-0.002443461,-0.002443461,TREMOR,026369732c41
1776793503088,1901727539599482,-2.3391352,1.2330139,-9.303867,0.0012217305,0.0,-0.0036651916,TREMOR,026369732c41
1776793503096,1901727547593704,-2.3415294,1.2425907,-9.296685,-6.1086525E-4,0.0018325958,0.0,TREMOR,026369732c41
1776793503104,1901727555590234,-2.3056161,1.2497733,-9.294291,0.0012217305,0.0,6.1086525E-4,TREMOR,026369732c41
1776793503112,1901727563617302,-2.303222,1.2689269,-9.299079,6.1086525E-4,0.0030543262,0.002443461,TREMOR,026369732c41
1776793503120,1901727571614293,-2.2936451,1.271321,-9.289502,0.0,0.0067195175,0.0030543262,TREMOR,026369732c41
1776793503128,1901727579609667,-2.2936451,1.2808979,-9.296685,0.0,0.008552114,0.0067195175,TREMOR,026369732c41
1776793503136,1901727587603504,-2.2984335,1.2641385,-9.287108,-0.0018325958,0.01160644,0.0067195175,TREMOR,026369732c41
1776793503144,1901727595597957,-2.2864625,1.2593501,-9.308656,-0.0012217305,0.010995574,0.0067195175,TREMOR,026369732c41
1776793503152,1901727603595409,-2.3056161,1.2497733,-9.31105,-0.0036651916,0.010995574,0.0067195175,TREMOR,026369732c41
1776793503160,1901727611590862,-2.303222,1.2617443,-9.306262,-0.004886922,0.012217305,0.005497787,TREMOR,026369732c41
1776793503168,1901727619617006,-2.3127987,1.2473791,-9.32781,-0.007330383,0.01282817,0.004276057,TREMOR,026369732c41
1776793503176,1901727627610535,-2.2984335,1.2066777,-9.313444,-0.0067195175,0.01160644,0.002443461,TREMOR,026369732c41
1776793503184,1901727635608296,-2.2768857,1.2258313,-9.308656,-0.0067195175,0.01160644,0.005497787,TREMOR,026369732c41
1776793503192,1901727643604364,-2.255338,1.2258313,-9.313444,-0.0061086523,0.01160644,0.004276057,TREMOR,026369732c41
1776793503200,1901727651597278,-2.231396,1.2449849,-9.31105,-0.008552114,0.01038471,0.002443461,TREMOR,026369732c41
1776793503208,1901727659596575,-2.2481554,1.2521675,-9.31105,-0.007330383,0.009773844,0.004276057,TREMOR,026369732c41
1776793503216,1901727667590489,-2.2385786,1.2569559,-9.313444,-0.007330383,0.009773844,0.002443461,TREMOR,026369732c41
1776793503224,1901727675615096,-2.2457612,1.2593501,-9.313444,-0.007941248,0.009162978,6.1086525E-4,TREMOR,026369732c41
1776793503232,1901727683611087,-2.2146366,1.2761095,-9.303867,-0.007941248,0.009162978,-0.0012217305,TREMOR,026369732c41
1776793503240,1901727691605770,-2.2409728,1.2593501,-9.308656,-0.008552114,0.007330383,6.1086525E-4,TREMOR,026369732c41
1776793503248,1901727699604299,-2.243367,1.271321,-9.330204,-0.008552114,0.007941248,-0.0012217305,TREMOR,026369732c41
1776793503256,1901727707597751,-2.27928,1.2785037,-9.313444,-0.0067195175,0.0061086523,-6.1086525E-4,TREMOR,026369732c41
1776793503264,1901727715594358,-2.267309,1.2808979,-9.3182335,-0.0061086523,0.004276057,-0.0012217305,TREMOR,026369732c41
1776793503272,1901727723590349,-2.2744915,1.2952632,-9.313444,-0.0036651916,0.004886922,0.0,TREMOR,026369732c41
1776793503280,1901727731614417,-2.2697031,1.2904748,-9.299079,-0.004886922,0.004886922,6.1086525E-4,TREMOR,026369732c41
1776793503288,1901727739610330,-2.2888567,1.2904748,-9.31105,-0.002443461,0.0067195175,-0.0012217305,TREMOR,026369732c41
1776793503296,1901727747607321,-2.2864625,1.3024458,-9.31105,-0.0036651916,0.0061086523,0.0012217305,TREMOR,026369732c41
1776793503304,1901727755602696,-2.3008277,1.2952632,-9.303867,-0.0012217305,0.004886922,0.0,TREMOR,026369732c41
1776793503312,1901727763598380,-2.2960393,1.2856863,-9.308656,-6.1086525E-4,0.004276057,-6.1086525E-4,TREMOR,026369732c41
1776793503320,1901727771594909,-2.2960393,1.283292,-9.301474,0.0,0.005497787,0.0,TREMOR,026369732c41
1776793503328,1901727779589976,-2.2840683,1.271321,-9.3182335,-6.1086525E-4,0.005497787,-0.0012217305,TREMOR,026369732c41
1776793503336,1901727787614967,-2.3008277,1.2545617,-9.31105,6.1086525E-4,0.007941248,-6.1086525E-4,TREMOR,026369732c41
1776793503344,1901727795611804,-2.2840683,1.2497733,-9.299079,0.0012217305,0.0067195175,-0.002443461,TREMOR,026369732c41
1776793503352,1901727803606334,-2.2649148,1.2569559,-9.303867,-6.1086525E-4,0.009162978,-0.0012217305,TREMOR,026369732c41
1776793503360,1901727811604479,-2.2481554,1.2593501,-9.301474,0.0012217305,0.008552114,6.1086525E-4,TREMOR,026369732c41
1776793503368,1901727819598007,-2.231396,1.2737153,-9.320627,6.1086525E-4,0.008552114,6.1086525E-4,TREMOR,026369732c41
1776793503376,1901727827592690,-2.2290018,1.2473791,-9.313444,0.0012217305,0.008552114,6.1086525E-4,TREMOR,026369732c41
1776793503384,1901727835589681,-2.2361844,1.2306197,-9.315839,0.0,0.007941248,-0.0018325958,TREMOR,026369732c41
1776793503392,1901727843616057,-2.2218192,1.2330139,-9.301474,0.0,0.005497787,-6.1086525E-4,TREMOR,026369732c41
1776793503400,1901727851609587,-2.2146366,1.1971009,-9.308656,0.0,0.007941248,-6.1086525E-4,TREMOR,026369732c41
1776793503408,1901727859606807,-2.2050598,1.2162545,-9.3182335,-6.1086525E-4,0.0061086523,-0.0012217305,TREMOR,026369732c41
1776793503416,1901727867600952,-2.2026656,1.2378023,-9.315839,-0.0012217305,0.004276057,-0.0018325958,TREMOR,026369732c41
1776793503424,1901727875596943,-2.2146366,1.2569559,-9.315839,-0.0018325958,0.0030543262,-0.0012217305,TREMOR,026369732c41
1776793503432,1901727883591780,-2.2026656,1.2497733,-9.330204,-0.002443461,0.002443461,-0.0012217305,TREMOR,026369732c41
1776793503440,1901727891590233,-2.2170308,1.2569559,-9.330204,-0.0018325958,0.0012217305,0.0012217305,TREMOR,026369732c41
1776793503448,1901727899616300,-2.1906946,1.2521675,-9.3182335,0.0,-0.0012217305,0.0030543262,TREMOR,026369732c41
1776793503456,1901727907609906,-2.2242134,1.2617443,-9.308656,-6.1086525E-4,-6.1086525E-4,0.002443461,TREMOR,026369732c41
1776793503464,1901727915606436,-2.2361844,1.2593501,-9.325416,6.1086525E-4,-6.1086525E-4,0.002443461,TREMOR,026369732c41
1776793503472,1901727923600888,-2.2290018,1.2617443,-9.306262,0.0012217305,-0.004886922,0.0030543262,TREMOR,026369732c41
1776793503480,1901727931598726,-2.2481554,1.2401965,-9.308656,0.0030543262,-0.005497787,0.0036651916,TREMOR,026369732c41
1776793503488,1901727939593794,-2.2529438,1.2569559,-9.291897,0.0030543262,-0.007330383,0.0036651916,TREMOR,026369732c41
1776793503496,1901727947587399,-2.2840683,1.2545617,-9.308656,0.0018325958,-0.0067195175,0.0018325958,TREMOR,026369732c41
1776793503504,1901727955614467,-2.2744915,1.2473791,-9.3182335,0.0036651916,-0.009773844,0.004276057,TREMOR,026369732c41
1776793503512,1901727963610150,-2.2816741,1.2473791,-9.31105,0.002443461,-0.007941248,0.0030543262,TREMOR,026369732c41
1776793503520,1901727971605141,-2.2960393,1.2593501,-9.320627,0.002443461,-0.0067195175,0.0036651916,TREMOR,026369732c41
1776793503528,1901727979599978,-2.3127987,1.271321,-9.315839,0.0,-0.005497787,0.002443461,TREMOR,026369732c41
1776793503536,1901727987597122,-2.3080103,1.2665327,-9.315839,6.1086525E-4,-0.0030543262,0.0018325958,TREMOR,026369732c41
1776793503544,1901727995591344,-2.3343468,1.2473791,-9.301474,-6.1086525E-4,-0.0030543262,0.0036651916,TREMOR,026369732c41
1776793503552,1901728003586720,-2.327164,1.2689269,-9.320627,-0.0012217305,-6.1086525E-4,-6.1086525E-4,TREMOR,026369732c41
1776793503560,1901728011614711,-2.336741,1.2761095,-9.313444,6.1086525E-4,0.0030543262,-0.0018325958,TREMOR,026369732c41
1776793503568,1901728019609163,-2.3223755,1.271321,-9.315839,-6.1086525E-4,0.0036651916,-6.1086525E-4,TREMOR,026369732c41
1776793503576,1901728027604230,-2.3199813,1.2856863,-9.315839,-0.002443461,0.0067195175,-0.0012217305,TREMOR,026369732c41
1776793503584,1901728035601683,-2.2960393,1.2737153,-9.303867,-0.0018325958,0.005497787,-6.1086525E-4,TREMOR,026369732c41
1776793503592,1901728043598058,-2.3008277,1.3120226,-9.291897,-0.0018325958,0.009773844,6.1086525E-4,TREMOR,026369732c41
1776793503600,1901728051593972,-2.2864625,1.2856863,-9.313444,-6.1086525E-4,0.009162978,6.1086525E-4,TREMOR,026369732c41
1776793503608,1901728059589733,-2.2505496,1.30484,-9.303867,-6.1086525E-4,0.01038471,0.0,TREMOR,026369732c41
1776793503616,1901728067614261,-2.2529438,1.2880806,-9.301474,-6.1086525E-4,0.010995574,0.0012217305,TREMOR,026369732c41
1776793503624,1901728075610021,-2.2385786,1.2856863,-9.296685,-0.0018325958,0.013439035,0.002443461,TREMOR,026369732c41
1776793503632,1901728083605397,-2.2242134,1.283292,-9.301474,-6.1086525E-4,0.01282817,-0.0012217305,TREMOR,026369732c41
1776793503640,1901728091601619,-2.2146366,1.2761095,-9.31105,-6.1086525E-4,0.013439035,-0.0012217305,TREMOR,026369732c41
1776793503648,1901728099597610,-2.2146366,1.2641385,-9.306262,-6.1086525E-4,0.01160644,6.1086525E-4,TREMOR,026369732c41
1776793503656,1901728107590831,-2.2170308,1.2497733,-9.301474,-0.0012217305,0.009773844,6.1086525E-4,TREMOR,026369732c41
1776793503664,1901728115586899,-2.2026656,1.2449849,-9.3182335,-6.1086525E-4,0.01038471,-0.0012217305,TREMOR,026369732c41
1776793503672,1901728123614274,-2.2050598,1.2378023,-9.313444,0.0,0.005497787,0.0018325958,TREMOR,026369732c41
1776793503680,1901728131609265,-2.2026656,1.2449849,-9.320627,0.0,0.0036651916,-6.1086525E-4,TREMOR,026369732c41
1776793503688,1901728139605564,-2.2337902,1.2425907,-9.308656,-0.0012217305,0.0012217305,-0.0012217305,TREMOR,026369732c41
1776793503696,1901728147600400,-2.2218192,1.2401965,-9.315839,0.0,0.0012217305,-6.1086525E-4,TREMOR,026369732c41
1776793503704,1901728155594776,-2.231396,1.2449849,-9.320627,-6.1086525E-4,0.0018325958,-0.0018325958,TREMOR,026369732c41
1776793503712,1901728163592382,-2.2457612,1.2330139,-9.332599,0.0012217305,-6.1086525E-4,-0.0018325958,TREMOR,026369732c41
1776793503720,1901728171618527,-2.2649148,1.2425907,-9.313444,0.002443461,-6.1086525E-4,-0.002443461,TREMOR,026369732c41
1776793503728,1901728179612057,-2.27928,1.2425907,-9.32781,0.0018325958,0.0,0.0,TREMOR,026369732c41
1776793503736,1901728187608585,-2.2697031,1.2330139,-9.315839,0.0036651916,-0.004886922,-0.002443461,TREMOR,026369732c41
1776793503744,1901728195606730,-2.27928,1.2378023,-9.325416,0.004276057,-0.0030543262,-0.002443461,TREMOR,026369732c41
1776793503752,1901728203600644,-2.2744915,1.2689269,-9.320627,0.005497787,-0.002443461,-0.002443461,TREMOR,026369732c41
1776793503760,1901728211594481,-2.2816741,1.2473791,-9.3182335,0.0036651916,-0.0030543262,-0.0012217305,TREMOR,026369732c41
1776793503768,1901728219590395,-2.27928,1.2449849,-9.31105,0.0036651916,-0.0018325958,-0.0012217305,TREMOR,026369732c41
1776793503776,1901728227587078,-2.2720973,1.2521675,-9.315839,0.004276057,-0.0012217305,0.0,TREMOR,026369732c41
1776793503784,1901728235612838,-2.2625206,1.2497733,-9.313444,0.002443461,-0.002443461,-6.1086525E-4,TREMOR,026369732c41
1776793503792,1901728243609444,-2.2864625,1.2593501,-9.325416,0.0036651916,-6.1086525E-4,-0.0012217305,TREMOR,026369732c41
1776793503800,1901728251606051,-2.27928,1.2306197,-9.323022,0.002443461,6.1086525E-4,0.0,TREMOR,026369732c41
1776793503808,1901728259600888,-2.2744915,1.2210429,-9.32781,0.0030543262,0.0036651916,-0.0036651916,TREMOR,026369732c41
1776793503816,1901728267595032,-2.2816741,1.2114661,-9.323022,0.002443461,0.0067195175,-0.002443461,TREMOR,026369732c41
1776793503824,1901728275591638,-2.2529438,1.2114661,-9.3182335,0.0018325958,0.009162978,-0.002443461,TREMOR,026369732c41
1776793503832,1901728283617091,-2.2385786,1.2234371,-9.315839,0.0018325958,0.01038471,-0.004886922,TREMOR,026369732c41
1776793503840,1901728291613466,-2.2457612,1.2258313,-9.325416,0.0018325958,0.010995574,-0.004276057,TREMOR,026369732c41
1776793503848,1901728299610303,-2.2601264,1.2354081,-9.315839,0.0030543262,0.01282817,-0.004276057,TREMOR,026369732c41
1776793503856,1901728307601986,-2.2529438,1.2282255,-9.320627,6.1086525E-4,0.013439035,-0.004886922,TREMOR,026369732c41
1776793503864,1901728315598361,-2.243367,1.2401965,-9.315839,6.1086525E-4,0.015271631,-0.005497787,TREMOR,026369732c41
1776793503872,1901728323594968,-2.2290018,1.2473791,-9.320627,0.0,0.015882496,-0.0061086523,TREMOR,026369732c41
1776793503880,1901728331592420,-2.2266076,1.2378023,-9.31105,-6.1086525E-4,0.014049901,-0.0067195175,TREMOR,026369732c41
1776793503888,1901728339586258,-2.2242134,1.2449849,-9.303867,0.0,0.014049901,-0.007330383,TREMOR,026369732c41
1776793503896,1901728347611863,-2.2337902,1.2617443,-9.315839,-6.1086525E-4,0.010995574,-0.005497787,TREMOR,026369732c41
1776793503904,1901728355608469,-2.2337902,1.2521675,-9.320627,0.002443461,0.009162978,-0.0061086523,TREMOR,026369732c41
1776793503912,1901728363604383,-2.2170308,1.2593501,-9.315839,0.002443461,0.009162978,-0.0030543262,TREMOR,026369732c41
1776793503920,1901728371600990,-2.207454,1.2593501,-9.308656,0.004276057,0.0061086523,-0.0030543262,TREMOR,026369732c41
1776793503928,1901728379593673,-2.2050598,1.2737153,-9.323022,0.005497787,0.004886922,-0.0018325958,TREMOR,026369732c41
1776793503936,1901728387589357,-2.2026656,1.2641385,-9.31105,0.007330383,0.0012217305,0.0018325958,TREMOR,026369732c41
1776793503944,1901728395616423,-2.1978772,1.2545617,-9.313444,0.007941248,-0.0036651916,0.0018325958,TREMOR,026369732c41
1776793503952,1901728403613030,-2.2002714,1.2617443,-9.301474,0.008552114,-0.004886922,0.0030543262,TREMOR,026369732c41
1776793503960,1901728411608021,-2.1930888,1.2569559,-9.313444,0.007941248,-0.0067195175,0.0061086523,TREMOR,026369732c41
1776793503968,1901728419601935,-2.2290018,1.2521675,-9.299079,0.0067195175,-0.01038471,0.0036651916,TREMOR,026369732c41
1776793503976,1901728427598772,-2.2218192,1.2330139,-9.294291,0.007330383,-0.012217305,0.004276057,TREMOR,026369732c41
1776793503984,1901728435594224,-2.2242134,1.2473791,-9.301474,0.0067195175,-0.01282817,0.004276057,TREMOR,026369732c41
1776793503992,1901728443590830,-2.2290018,1.2258313,-9.289502,0.0067195175,-0.010995574,0.004886922,TREMOR,026369732c41
1776793504000,1901728451586513,-2.2361844,1.2449849,-9.301474,0.004886922,-0.010995574,0.005497787,TREMOR,026369732c41
1776793504008,1901728459610504,-2.2744915,1.2401965,-9.306262,0.0036651916,-0.010995574,0.004276057,TREMOR,026369732c41
1776793504016,1901728467607726,-2.2840683,1.2258313,-9.313444,0.0036651916,-0.009773844,0.004276057,TREMOR,026369732c41
1776793504024,1901728475603409,-2.2649148,1.2378023,-9.308656,0.004276057,-0.010995574,0.004276057,TREMOR,026369732c41
1776793504032,1901728483599938,-2.2744915,1.2401965,-9.308656,0.002443461,-0.007941248,0.0061086523,TREMOR,026369732c41
1776793504040,1901728491594468,-2.2888567,1.2306197,-9.303867,0.0030543262,-0.0061086523,0.005497787,TREMOR,026369732c41
1776793504048,1901728499590459,-2.2864625,1.2473791,-9.306262,0.0018325958,-0.0036651916,0.004276057,TREMOR,026369732c41
1776793504056,1901728507614450,-2.2888567,1.2497733,-9.315839,0.0018325958,-0.0018325958,0.004276057,TREMOR,026369732c41
1776793504064,1901728515612517,-2.2840683,1.2521675,-9.3182335,0.002443461,-0.0036651916,0.004276057,TREMOR,026369732c41
1776793504072,1901728523607277,-2.303222,1.2449849,-9.320627,0.002443461,-0.0012217305,0.004276057,TREMOR,026369732c41
1776793504080,1901728531602729,-2.3104045,1.2282255,-9.330204,0.0,0.0,0.0036651916,TREMOR,026369732c41
1776793504088,1901728539599259,-2.303222,1.2449849,-9.3182335,6.1086525E-4,0.0012217305,0.002443461,TREMOR,026369732c41
1776793504096,1901728547593173,-2.3127987,1.2330139,-9.323022,6.1086525E-4,0.004276057,6.1086525E-4,TREMOR,026369732c41
1776793504104,1901728555590624,-2.3056161,1.2306197,-9.32781,6.1086525E-4,0.002443461,0.0012217305,TREMOR,026369732c41
1776793504112,1901728563617692,-2.3104045,1.2569559,-9.320627,0.0018325958,0.0036651916,0.0012217305,TREMOR,026369732c41
1776793504120,1901728571612145,-2.303222,1.2282255,-9.325416,6.1086525E-4,0.005497787,-0.0018325958,TREMOR,026369732c41
1776793504128,1901728579605444,-2.3104045,1.2545617,-9.301474,0.002443461,0.004886922,-6.1086525E-4,TREMOR,026369732c41
1776793504136,1901728587601742,-2.2936451,1.2401965,-9.3182335,0.002443461,0.004886922,-0.0018325958,TREMOR,026369732c41
1776793504144,1901728595598655,-2.2984335,1.2378023,-9.323022,0.0030543262,0.0061086523,-0.0030543262,TREMOR,026369732c41
1776793504152,1901728603594954,-2.2768857,1.2306197,-9.306262,0.0030543262,0.007941248,-0.002443461,TREMOR,026369732c41
1776793504160,1901728611591253,-2.2625206,1.2521675,-9.308656,0.0030543262,0.009773844,-0.0036651916,TREMOR,026369732c41
1776793504168,1901728619586859,-2.2481554,1.2497733,-9.308656,0.0018325958,0.010995574,-0.0036651916,TREMOR,026369732c41
1776793504176,1901728627609927,-2.2529438,1.2473791,-9.291897,6.1086525E-4,0.009773844,-0.004276057,TREMOR,026369732c41
1776793504184,1901728635606225,-2.2457612,1.2473791,-9.31105,-0.0012217305,0.01282817,-0.005497787,TREMOR,026369732c41
1776793504192,1901728643602524,-2.243367,1.2521675,-9.31105,-6.1086525E-4,0.014049901,-0.0036651916,TREMOR,026369732c41
1776793504200,1901728651598207,-2.2457612,1.2401965,-9.301474,-0.0018325958,0.014049901,-0.004276057,TREMOR,026369732c41
1776793504208,1901728659594275,-2.2505496,1.2354081,-9.303867,-0.0036651916,0.01282817,-0.004886922,TREMOR,026369732c41
1776793504216,1901728667588343,-2.2361844,1.2378023,-9.320627,-0.0018325958,0.01282817,-0.004886922,TREMOR,026369732c41
1776793504224,1901728675615487,-2.2290018,1.2425907,-9.315839,0.0,0.01160644,-0.0061086523,TREMOR,026369732c41
1776793504232,1901728683610785,-2.2361844,1.2425907,-9.320627,-0.0012217305,0.009162978,-0.0036651916,TREMOR,026369732c41
1776793504240,1901728691607161,-2.2290018,1.2521675,-9.315839,-0.0012217305,0.0067195175,-0.004886922,TREMOR,026369732c41
1776793504248,1901728699601229,-2.2385786,1.2378023,-9.306262,6.1086525E-4,0.005497787,-0.002443461,TREMOR,026369732c41
1776793504256,1901728707597297,-2.231396,1.2425907,-9.308656,0.0,0.0012217305,-0.0030543262,TREMOR,026369732c41
1776793504264,1901728715592364,-2.2218192,1.2449849,-9.313444,0.0018325958,0.0,-0.002443461,TREMOR,026369732c41
1776793504272,1901728723589201,-2.2146366,1.2306197,-9.315839,0.0030543262,-6.1086525E-4,-0.0012217305,TREMOR,026369732c41
1776793504280,1901728731614731,-2.2242134,1.2186487,-9.32781,0.0036651916,-6.1086525E-4,-6.1086525E-4,TREMOR,026369732c41
1776793504288,1901728739611029,-2.2290018,1.2210429,-9.315839,0.004276057,-0.002443461,0.0,TREMOR,026369732c41
1776793504296,1901728747605174,-2.219425,1.1947067,-9.330204,0.005497787,-6.1086525E-4,-6.1086525E-4,TREMOR,026369732c41
1776793504304,1901728755601241,-2.2457612,1.2018893,-9.337387,0.004276057,-0.0018325958,6.1086525E-4,TREMOR,026369732c41
1776793504312,1901728763597155,-2.2218192,1.1827357,-9.339781,0.004276057,-0.0030543262,-6.1086525E-4,TREMOR,026369732c41
1776793504320,1901728771592838,-2.2266076,1.1947067,-9.330204,0.004276057,-0.004886922,-0.0012217305,TREMOR,026369732c41
1776793504328,1901728779589753,-2.2266076,1.1923125,-9.32781,0.004276057,-0.007330383,0.0,TREMOR,026369732c41
1776793504336,1901728787613436,-2.2242134,1.1947067,-9.31105,0.004886922,-0.007330383,0.0012217305,TREMOR,026369732c41
1776793504344,1901728795612272,-2.2242134,1.1971009,-9.330204,0.0018325958,-0.007330383,6.1086525E-4,TREMOR,026369732c41
1776793504352,1901728803605494,-2.219425,1.2138603,-9.325416,0.0018325958,-0.008552114,0.0012217305,TREMOR,026369732c41
1776793504360,1901728811602100,-2.2266076,1.1971009,-9.323022,6.1086525E-4,-0.007941248,0.0018325958,TREMOR,026369732c41
1776793504368,1901728819597168,-2.2337902,1.1899183,-9.3421755,-6.1086525E-4,-0.009162978,0.0018325958,TREMOR,026369732c41
1776793504376,1901728827592775,-2.2529438,1.1827357,-9.339781,-0.0018325958,-0.007330383,0.0018325958,TREMOR,026369732c41
1776793504384,1901728835587612,-2.2457612,1.1923125,-9.325416,-0.0012217305,-0.0067195175,-6.1086525E-4,TREMOR,026369732c41
1776793504392,1901728843613756,-2.2577322,1.1947067,-9.32781,-0.002443461,-0.004276057,6.1086525E-4,TREMOR,026369732c41
1776793504400,1901728851610901,-2.2481554,1.2018893,-9.337387,-0.0018325958,-0.0018325958,-0.0018325958,TREMOR,026369732c41
1776793504408,1901728859606045,-2.2625206,1.2066777,-9.334992,-0.0018325958,-0.0012217305,-0.0030543262,TREMOR,026369732c41
1776793504416,1901728867600190,-2.2816741,1.2162545,-9.313444,-0.002443461,0.0036651916,-0.0018325958,TREMOR,026369732c41
1776793504424,1901728875595489,-2.2864625,1.2138603,-9.320627,-0.0030543262,0.002443461,-0.0018325958,TREMOR,026369732c41
1776793504432,1901728883593094,-2.2840683,1.2234371,-9.334992,-0.0036651916,0.002443461,-0.0018325958,TREMOR,026369732c41
1776793504440,1901728891588085,-2.291251,1.2425907,-9.320627,-0.004276057,0.0030543262,-0.0030543262,TREMOR,026369732c41
1776793504448,1901728899614538,-2.3008277,1.2521675,-9.323022,-0.004276057,0.002443461,-0.002443461,TREMOR,026369732c41
1776793504456,1901728907609914,-2.2840683,1.2473791,-9.320627,-0.002443461,0.0012217305,0.0,TREMOR,026369732c41
1776793504464,1901728915605289,-2.291251,1.2665327,-9.320627,-0.0030543262,-0.002443461,-0.002443461,TREMOR,026369732c41
1776793504472,1901728923602895,-2.2960393,1.2593501,-9.344569,-0.0018325958,-0.0012217305,-0.0012217305,TREMOR,026369732c41
1776793504480,1901728931596963,-2.2744915,1.2641385,-9.330204,-0.0012217305,0.0,-6.1086525E-4,TREMOR,026369732c41
1776793504488,1901728939591107,-2.2649148,1.2449849,-9.31105,0.0018325958,-0.0018325958,0.0,TREMOR,026369732c41
1776793504496,1901728947587406,-2.2649148,1.2521675,-9.3182335,0.0,0.0,-6.1086525E-4,TREMOR,026369732c41
1776793504504,1901728955613936,-2.2457612,1.2569559,-9.330204,0.0,-6.1086525E-4,6.1086525E-4,TREMOR,026369732c41
1776793504512,1901728963610464,-2.2361844,1.2545617,-9.320627,0.0012217305,-6.1086525E-4,0.0018325958,TREMOR,026369732c41
1776793504520,1901728971603147,-2.2242134,1.2545617,-9.320627,0.0030543262,-6.1086525E-4,-6.1086525E-4,TREMOR,026369732c41
1776793504528,1901728979600062,-2.2218192,1.2449849,-9.330204,0.002443461,-0.0018325958,0.0018325958,TREMOR,026369732c41
1776793504536,1901728987595437,-2.207454,1.2545617,-9.32781,0.0018325958,-0.0018325958,0.004276057,TREMOR,026369732c41
1776793504544,1901728995592044,-2.2098482,1.2258313,-9.330204,0.002443461,-0.0018325958,0.0030543262,TREMOR,026369732c41
1776793504552,1901729003587111,-2.207454,1.2162545,-9.339781,0.0018325958,-0.0018325958,0.0018325958,TREMOR,026369732c41
1776793504560,1901729011613871,-2.2170308,1.2114661,-9.337387,0.0018325958,-0.0012217305,0.002443461,TREMOR,026369732c41
1776793504568,1901729019610400,-2.2170308,1.1851299,-9.337387,0.002443461,-0.002443461,0.002443461,TREMOR,026369732c41
1776793504576,1901729027604007,-2.207454,1.1803415,-9.330204,0.0030543262,-0.004276057,0.0030543262,TREMOR,026369732c41
1776793504584,1901729035600228,-2.219425,1.1683705,-9.337387,0.0036651916,-0.007941248,0.0030543262,TREMOR,026369732c41
1776793504592,1901729043596218,-2.2266076,1.1851299,-9.344569,0.0012217305,-0.009162978,0.0030543262,TREMOR,026369732c41
1776793504600,1901729051589825,-2.2242134,1.1827357,-9.325416,0.002443461,-0.010995574,0.0036651916,TREMOR,026369732c41
1776793504608,1901729059587970,-2.2529438,1.1875241,-9.320627,0.0018325958,-0.01282817,0.0030543262,TREMOR,026369732c41
1776793504616,1901729067611961,-2.267309,1.1875241,-9.32781,0.0,-0.012217305,0.0012217305,TREMOR,026369732c41
1776793504624,1901729075607875,-2.2936451,1.1971009,-9.332599,-0.0018325958,-0.009162978,0.002443461,TREMOR,026369732c41
1776793504632,1901729083602711,-2.2960393,1.1923125,-9.339781,-0.0018325958,-0.007941248,-6.1086525E-4,TREMOR,026369732c41
1776793504640,1901729091599625,-2.3080103,1.2186487,-9.32781,-0.004276057,-0.007330383,-6.1086525E-4,TREMOR,026369732c41
1776793504648,1901729099595924,-2.3175871,1.2162545,-9.320627,-0.004276057,-0.0036651916,-0.0012217305,TREMOR,026369732c41
1776793504656,1901729107591223,-2.3223755,1.2378023,-9.315839,-0.004886922,-0.0012217305,-0.0030543262,TREMOR,026369732c41
1776793504664,1901729115585367,-2.3295584,1.2306197,-9.330204,-0.004276057,0.0012217305,-0.0036651916,TREMOR,026369732c41
1776793504672,1901729123612434,-2.327164,1.2401965,-9.313444,-0.005497787,6.1086525E-4,-0.0030543262,TREMOR,026369732c41
1776793504680,1901729131609041,-2.3247697,1.2330139,-9.306262,-0.005497787,0.004276057,-0.0036651916,TREMOR,026369732c41
1776793504688,1901729139602339,-2.3319526,1.2545617,-9.291897,-0.0067195175,0.007330383,-0.004276057,TREMOR,026369732c41
1776793504696,1901729147598561,-2.3056161,1.2593501,-9.308656,-0.004886922,0.007330383,-0.004886922,TREMOR,026369732c41
1776793504704,1901729155593706,-2.3127987,1.2545617,-9.32781,-0.0061086523,0.009162978,-0.0012217305,TREMOR,026369732c41
1776793504712,1901729163590619,-2.27928,1.2521675,-9.330204,-0.0061086523,0.010995574,-0.004276057,TREMOR,026369732c41
1776793504720,1901729171616072,-2.2649148,1.2306197,-9.325416,-0.004886922,0.009162978,-0.004276057,TREMOR,026369732c41
1776793504728,1901729179612447,-2.2505496,1.2354081,-9.346964,-0.004886922,0.009162978,0.0,TREMOR,026369732c41
1776793504736,1901729187607131,-2.2385786,1.2306197,-9.32781,-0.0036651916,0.009162978,0.0,TREMOR,026369732c41
1776793504744,1901729195602199,-2.2385786,1.2258313,-9.344569,-0.0036651916,0.01038471,6.1086525E-4,TREMOR,026369732c41
1776793504752,1901729203599727,-2.2266076,1.1994951,-9.337387,-0.0036651916,0.009162978,6.1086525E-4,TREMOR,026369732c41
1776793504760,1901729211594795,-2.207454,1.2114661,-9.330204,-0.0030543262,0.007941248,-6.1086525E-4,TREMOR,026369732c41
1776793504768,1901729219590555,-2.1978772,1.2018893,-9.339781,-0.0012217305,0.005497787,-6.1086525E-4,TREMOR,026369732c41
1776793504776,1901729227585008,-2.2002714,1.1851299,-9.346964,-0.0012217305,0.0036651916,0.0,TREMOR,026369732c41
1776793504784,1901729235612614,-2.1906946,1.1803415,-9.337387,0.0,0.0036651916,0.0012217305,TREMOR,026369732c41
1776793504792,1901729243607681,-2.1930888,1.1851299,-9.354146,-6.1086525E-4,6.1086525E-4,0.0,TREMOR,026369732c41
1776793504800,1901729251602826,-2.1859062,1.1755531,-9.332599,0.0,6.1086525E-4,0.0,TREMOR,026369732c41
1776793504808,1901729259599971,-2.2002714,1.1899183,-9.358934,0.0012217305,-0.0018325958,-6.1086525E-4,TREMOR,026369732c41
1776793504816,1901729267593270,-2.2002714,1.1899183,-9.339781,6.1086525E-4,-0.0018325958,-0.002443461,TREMOR,026369732c41
1776793504824,1901729275592261,-2.2146366,1.2018893,-9.334992,6.1086525E-4,-0.0018325958,-6.1086525E-4,TREMOR,026369732c41
1776793504832,1901729283586175,-2.231396,1.1971009,-9.320627,-6.1086525E-4,-0.0036651916,-0.0012217305,TREMOR,026369732c41
1776793504840,1901729291613242,-2.2361844,1.2210429,-9.320627,0.0,-0.004276057,-0.002443461,TREMOR,026369732c41
1776793504848,1901729299607079,-2.2577322,1.2234371,-9.294291,0.0,-0.004276057,-0.002443461,TREMOR,026369732c41
1776793504856,1901729307601839,-2.2649148,1.2354081,-9.303867,-0.002443461,-0.004276057,-0.0030543262,TREMOR,026369732c41
1776793504864,1901729315598984,-2.2744915,1.2162545,-9.3182335,-0.0030543262,-0.0036651916,-0.0036651916,TREMOR,026369732c41
1776793504872,1901729323594360,-2.2816741,1.2258313,-9.303867,-0.0036651916,-0.0030543262,-0.004276057,TREMOR,026369732c41
1776793504880,1901729331589504,-2.2960393,1.2330139,-9.303867,-0.002443461,-0.0030543262,-0.0030543262,TREMOR,026369732c41
1776793504888,1901729339617110,-2.2840683,1.2378023,-9.296685,-0.002443461,-0.0030543262,-0.002443461,TREMOR,026369732c41
1776793504896,1901729347610024,-2.2864625,1.2449849,-9.337387,-0.0036651916,-0.002443461,0.0012217305,TREMOR,026369732c41
1776793504904,1901729355606707,-2.291251,1.2282255,-9.325416,-0.004276057,-0.0030543262,-6.1086525E-4,TREMOR,026369732c41
1776793504912,1901729363603237,-2.27928,1.2306197,-9.339781,-0.0036651916,-6.1086525E-4,-6.1086525E-4,TREMOR,026369732c41
1776793504920,1901729371598381,-2.2864625,1.2234371,-9.325416,-0.0036651916,-0.0012217305,0.0012217305,TREMOR,026369732c41
1776793504928,1901729379594602,-2.267309,1.2138603,-9.313444,-0.002443461,-0.0012217305,0.0030543262,TREMOR,026369732c41
1776793504936,1901729387588440,-2.2505496,1.1994951,-9.337387,-0.0012217305,-0.0030543262,0.004276057,TREMOR,026369732c41
1776793504944,1901729395616431,-2.2481554,1.1947067,-9.323022,-0.0018325958,-0.002443461,0.002443461,TREMOR,026369732c41
1776793504952,1901729403611191,-2.2409728,1.1875241,-9.334992,-0.0012217305,-0.005497787,0.0018325958,TREMOR,026369732c41
1776793504960,1901729411607181,-2.2505496,1.1899183,-9.337387,-0.0018325958,-0.004886922,0.0036651916,TREMOR,026369732c41
1776793504968,1901729419602864,-2.2385786,1.1971009,-9.361329,-6.1086525E-4,-0.005497787,0.002443461,TREMOR,026369732c41
1776793504976,1901729427597086,-2.2218192,1.1971009,-9.339781,-0.0012217305,-0.0036651916,0.002443461,TREMOR,026369732c41
1776793504984,1901729435592154,-2.2266076,1.2018893,-9.325416,-6.1086525E-4,-0.004276057,0.0030543262,TREMOR,026369732c41
1776793504992,1901729443587760,-2.2122424,1.1994951,-9.330204,-0.0012217305,-0.004276057,0.0030543262,TREMOR,026369732c41
1776793505000,1901729451585597,-2.2266076,1.1947067,-9.337387,-6.1086525E-4,-0.005497787,0.002443461,TREMOR,026369732c41
1776793505008,1901729459611203,-2.243367,1.1875241,-9.332599,-0.0018325958,-0.004276057,0.0018325958,TREMOR,026369732c41
1776793505016,1901729467605656,-2.231396,1.1923125,-9.323022,-0.002443461,-0.0036651916,0.0018325958,TREMOR,026369732c41
1776793505024,1901729475602800,-2.2409728,1.2162545,-9.337387,-0.0018325958,-0.004276057,0.0,TREMOR,026369732c41
1776793505032,1901729483595484,-2.231396,1.2282255,-9.32781,-0.0036651916,-0.005497787,-6.1086525E-4,TREMOR,026369732c41
1776793505040,1901729491593243,-2.2529438,1.2306197,-9.323022,-0.0018325958,-0.0036651916,-0.0012217305,TREMOR,026369732c41
1776793505048,1901729499588696,-2.2720973,1.2306197,-9.31105,-0.004276057,-0.002443461,-0.0012217305,TREMOR,026369732c41
1776793505056,1901729507614533,-2.2864625,1.2162545,-9.308656,-0.004276057,-0.002443461,6.1086525E-4,TREMOR,026369732c41
1776793505064,1901729515608908,-2.2840683,1.2425907,-9.32781,-0.0036651916,-0.0036651916,0.0,TREMOR,026369732c41
1776793505072,1901729523604899,-2.2936451,1.2354081,-9.337387,-0.004276057,-0.0036651916,6.1086525E-4,TREMOR,026369732c41
1776793505080,1901729531601197,-2.2864625,1.2282255,-9.323022,-0.0018325958,-0.002443461,0.0,TREMOR,026369732c41
1776793505088,1901729539595957,-2.2888567,1.2306197,-9.325416,-0.0018325958,-0.004886922,-0.0012217305,TREMOR,026369732c41
1776793505096,1901729547592025,-2.2816741,1.2306197,-9.313444,-0.0012217305,-0.004276057,0.0018325958,TREMOR,026369732c41
1776793505104,1901729555587709,-2.291251,1.2186487,-9.325416,-0.0018325958,-0.004886922,0.0,TREMOR,026369732c41
1776793505112,1901729563614392,-2.3080103,1.2234371,-9.320627,-0.002443461,-0.005497787,6.1086525E-4,TREMOR,026369732c41
1776793505120,1901729571610767,-2.2816741,1.2210429,-9.303867,-0.0018325958,-0.004276057,0.0012217305,TREMOR,026369732c41
1776793505128,1901729579605450,-2.2840683,1.2114661,-9.313444,-0.0018325958,-0.004886922,0.0018325958,TREMOR,026369732c41
1776793505136,1901729587601210,-2.2888567,1.1851299,-9.313444,-0.0036651916,-0.004276057,0.0012217305,TREMOR,026369732c41
1776793505144,1901729595598124,-2.3008277,1.1947067,-9.313444,-0.0030543262,-0.004276057,0.0,TREMOR,026369732c41
1776793505152,1901729603592577,-2.27928,1.1947067,-9.332599,-0.004276057,-0.002443461,0.0,TREMOR,026369732c41
1776793505160,1901729611589105,-2.2960393,1.2018893,-9.325416,-0.004276057,-0.0018325958,-0.0018325958,TREMOR,026369732c41
1776793505168,1901729619615866,-2.2768857,1.1899183,-9.32781,-0.004276057,0.0012217305,-0.0018325958,TREMOR,026369732c41
1776793505176,1901729627608549,-2.2601264,1.1971009,-9.315839,-0.005497787,0.0030543262,-0.0012217305,TREMOR,026369732c41
1776793505184,1901729635606078,-2.2457612,1.1899183,-9.332599,-0.005497787,0.0061086523,-0.002443461,TREMOR,026369732c41
1776793505192,1901729643601069,-2.2457612,1.2018893,-9.313444,-0.007330383,0.008552114,-0.0030543262,TREMOR,026369732c41
1776793505200,1901729651595829,-2.2409728,1.2162545,-9.32781,-0.0061086523,0.008552114,-0.002443461,TREMOR,026369732c41
1776793505208,1901729659591820,-2.2361844,1.2090719,-9.315839,-0.007941248,0.009162978,-0.002443461,TREMOR,026369732c41
1776793505216,1901729667585964,-2.2361844,1.1899183,-9.346964,-0.007330383,0.007941248,-0.0036651916,TREMOR,026369732c41
1776793505224,1901729675614263,-2.2290018,1.2090719,-9.320627,-0.007941248,0.007941248,-0.002443461,TREMOR,026369732c41
1776793505232,1901729683607562,-2.2290018,1.2114661,-9.334992,-0.0067195175,0.004276057,-0.0012217305,TREMOR,026369732c41
1776793505240,1901729691605090,-2.2026656,1.2090719,-9.3421755,-0.0067195175,0.004276057,-0.0012217305,TREMOR,026369732c41
1776793505248,1901729699601081,-2.2098482,1.2042835,-9.334992,-0.0067195175,0.002443461,-0.0018325958,TREMOR,026369732c41
1776793505256,1901729707596995,-2.207454,1.2234371,-9.332599,-0.0067195175,6.1086525E-4,6.1086525E-4,TREMOR,026369732c41
1776793505264,1901729715593987,-2.1930888,1.2018893,-9.323022,-0.004886922,-0.0012217305,-0.0012217305,TREMOR,026369732c41
1776793505272,1901729723587131,-2.1906946,1.2090719,-9.330204,-0.0036651916,-6.1086525E-4,6.1086525E-4,TREMOR,026369732c41
1776793505280,1901729731613891,-2.1930888,1.2282255,-9.313444,-0.004276057,0.0,0.0012217305,TREMOR,026369732c41
1776793505288,1901729739610805,-2.1859062,1.2186487,-9.308656,-0.0036651916,-0.005497787,6.1086525E-4,TREMOR,026369732c41
1776793505296,1901729747603719,-2.1930888,1.2162545,-9.291897,-0.004276057,-0.004276057,0.002443461,TREMOR,026369732c41
1776793505304,1901729755602556,-2.2098482,1.2066777,-9.3182335,-0.004276057,-0.007330383,0.002443461,TREMOR,026369732c41
1776793505312,1901729763596009,-2.2050598,1.2210429,-9.303867,-0.0036651916,-0.0061086523,0.0030543262,TREMOR,026369732c41
1776793505320,1901729771591461,-2.2122424,1.2162545,-9.315839,-0.004886922,-0.009773844,0.0036651916,TREMOR,026369732c41
1776793505328,1901729779585528,-2.231396,1.2066777,-9.303867,-0.004886922,-0.009162978,0.002443461,TREMOR,026369732c41
1776793505336,1901729787613596,-2.243367,1.2210429,-9.323022,-0.0036651916,-0.01160644,0.002443461,TREMOR,026369732c41
1776793505344,1901729795609279,-2.2744915,1.2425907,-9.3182335,-0.0036651916,-0.01160644,0.0036651916,TREMOR,026369732c41
1776793505352,1901729803605270,-2.267309,1.2234371,-9.330204,-0.002443461,-0.013439035,6.1086525E-4,TREMOR,026369732c41
1776793505360,1901729811598415,-2.3008277,1.2306197,-9.3182335,0.0,-0.015271631,0.0036651916,TREMOR,026369732c41
1776793505368,1901729819596328,-2.303222,1.2282255,-9.3182335,-0.0036651916,-0.013439035,6.1086525E-4,TREMOR,026369732c41
1776793505376,1901729827591319,-2.3104045,1.2306197,-9.3182335,-0.0012217305,-0.01160644,0.002443461,TREMOR,026369732c41
1776793505384,1901729835588541,-2.3223755,1.2378023,-9.315839,-0.0018325958,-0.01282817,-6.1086525E-4,TREMOR,026369732c41
1776793505392,1901729843612532,-2.336741,1.2306197,-9.31105,-0.0012217305,-0.01038471,-6.1086525E-4,TREMOR,026369732c41
1776793505400,1901729851609523,-2.3511062,1.2258313,-9.313444,-0.0018325958,-0.007330383,-0.0030543262,TREMOR,026369732c41
1776793505408,1901729859604205,-2.3319526,1.2186487,-9.315839,-0.0018325958,-0.004886922,-0.0030543262,TREMOR,026369732c41
1776793505416,1901729867598658,-2.3223755,1.2401965,-9.31105,-0.0018325958,-0.002443461,-0.0030543262,TREMOR,026369732c41
1776793505424,1901729875596803,-2.3127987,1.2138603,-9.313444,-0.0030543262,0.0,-0.0036651916,TREMOR,026369732c41
1776793505432,1901729883590948,-2.3104045,1.2234371,-9.313444,-0.0030543262,0.0061086523,-0.002443461,TREMOR,026369732c41
1776793505440,1901729891587016,-2.303222,1.2330139,-9.296685,-0.004276057,0.004886922,-0.0030543262,TREMOR,026369732c41
1776793505448,1901729899613467,-2.2840683,1.2354081,-9.308656,-0.004276057,0.007941248,-0.002443461,TREMOR,026369732c41
1776793505456,1901729907607535,-2.27928,1.2306197,-9.303867,-0.004276057,0.007941248,-6.1086525E-4,TREMOR,026369732c41
1776793505464,1901729915602680,-2.267309,1.2114661,-9.32781,-0.0061086523,0.007941248,-0.0018325958,TREMOR,026369732c41
1776793505472,1901729923597979,-2.267309,1.2234371,-9.320627,-0.004276057,0.010995574,-0.0018325958,TREMOR,026369732c41
1776793505480,1901729931594662,-2.255338,1.1994951,-9.320627,-0.004886922,0.009162978,-0.0018325958,TREMOR,026369732c41
1776793505488,1901729939591268,-2.243367,1.1994951,-9.330204,-0.004886922,0.007330383,-0.0018325958,TREMOR,026369732c41
1776793505496,1901729947616182,-2.2242134,1.1994951,-9.3182335,-0.004886922,0.007330383,-6.1086525E-4,TREMOR,026369732c41
1776793505504,1901729955613326,-2.2242134,1.2066777,-9.346964,-0.004276057,0.007941248,0.0,TREMOR,026369732c41
1776793505512,1901729963606241,-2.2122424,1.1779473,-9.349358,-0.005497787,0.0067195175,-6.1086525E-4,TREMOR,026369732c41
1776793505520,1901729971603539,-2.1978772,1.1899183,-9.332599,-0.004276057,0.004886922,-0.0030543262,TREMOR,026369732c41
1776793505528,1901729979598837,-2.195483,1.1923125,-9.337387,-0.004886922,0.004886922,-0.0030543262,TREMOR,026369732c41
1776793505536,1901729987593982,-2.2050598,1.1947067,-9.32781,-0.0036651916,0.0036651916,-0.002443461,TREMOR,026369732c41
1776793505544,1901729995591434,-2.2098482,1.1899183,-9.332599,-0.004276057,6.1086525E-4,-0.0018325958,TREMOR,026369732c41
1776793505552,1901730003616733,-2.2050598,1.1947067,-9.308656,-0.004276057,-0.0018325958,-0.002443461,TREMOR,026369732c41
1776793505560,1901730011611801,-2.2098482,1.1875241,-9.332599,-0.004276057,-0.0012217305,-0.002443461,TREMOR,026369732c41
1776793505568,1901730019608637,-2.2098482,1.1994951,-9.332599,-0.004276057,-0.004276057,-0.0018325958,TREMOR,026369732c41
1776793505576,1901730027602244,-2.2290018,1.2162545,-9.330204,-0.0030543262,-0.004886922,-0.002443461,TREMOR,026369732c41
1776793505584,1901730035598850,-2.2361844,1.2186487,-9.3182335,-0.0036651916,-0.004886922,-6.1086525E-4,TREMOR,026369732c41
1776793505592,1901730043594764,-2.2529438,1.2162545,-9.323022,-0.0018325958,-0.005497787,-0.0018325958,TREMOR,026369732c41
1776793505600,1901730051588371,-2.2601264,1.2162545,-9.31105,-0.0018325958,-0.0067195175,-0.002443461,TREMOR,026369732c41
1776793505608,1901730059616899,-2.2864625,1.2330139,-9.303867,-0.0012217305,-0.0061086523,-0.0030543262,TREMOR,026369732c41
1776793505616,1901730067610813,-2.2816741,1.2449849,-9.301474,-0.0018325958,-0.0061086523,-0.0018325958,TREMOR,026369732c41
1776793505624,1901730075608881,-2.3080103,1.2354081,-9.308656,-0.0012217305,-0.005497787,-0.0036651916,TREMOR,026369732c41
1776793505632,1901730083603334,-2.3056161,1.2330139,-9.3182335,-0.0012217305,-0.0036651916,-0.0061086523,TREMOR,026369732c41
1776793505640,1901730091599402,-2.3319526,1.2282255,-9.323022,-0.0018325958,-0.002443461,-0.004276057,TREMOR,026369732c41
1776793505648,1901730099594084,-2.3104045,1.2425907,-9.3182335,-0.0036651916,-0.0012217305,-0.005497787,TREMOR,026369732c41
1776793505656,1901730107588844,-2.3223755,1.2306197,-9.313444,-0.002443461,6.1086525E-4,-0.004276057,TREMOR,026369732c41
1776793505664,1901730115615604,-2.315193,1.2186487,-9.294291,-0.0036651916,0.0018325958,-0.005497787,TREMOR,026369732c41
1776793505672,1901730123611365,-2.303222,1.2186487,-9.3182335,-0.0030543262,0.0030543262,-0.004886922,TREMOR,026369732c41
1776793505680,1901730131606356,-2.2864625,1.2162545,-9.323022,-0.0030543262,0.0030543262,-0.004276057,TREMOR,026369732c41
1776793505688,1901730139603576,-2.267309,1.2210429,-9.325416,-6.1086525E-4,0.0012217305,-0.0030543262,TREMOR,026369732c41
1776793505696,1901730147598644,-2.243367,1.2186487,-9.31105,-0.0030543262,0.0030543262,-0.0036651916,TREMOR,026369732c41
1776793505704,1901730155592789,-2.2385786,1.2114661,-9.3182335,-0.0012217305,0.0030543262,-0.0012217305,TREMOR,026369732c41
1776793505712,1901730163589165,-2.2050598,1.2066777,-9.31105,-0.0018325958,0.0036651916,-0.0012217305,TREMOR,026369732c41
1776793505720,1901730171584541,-2.2170308,1.1875241,-9.320627,-0.002443461,0.0030543262,0.0,TREMOR,026369732c41
1776793505728,1901730179612146,-2.2050598,1.1947067,-9.3182335,-0.0030543262,0.0036651916,0.0018325958,TREMOR,026369732c41
1776793505736,1901730187607522,-2.1930888,1.1803415,-9.313444,-0.0036651916,0.0036651916,0.0030543262,TREMOR,026369732c41
1776793505744,1901730195604128,-2.1859062,1.1923125,-9.3421755,-0.0018325958,6.1086525E-4,0.0018325958,TREMOR,026369732c41
1776793505752,1901730203597734,-2.1883004,1.1923125,-9.315839,-0.0036651916,0.0012217305,-6.1086525E-4,TREMOR,026369732c41
1776793505760,1901730211593725,-2.1906946,1.2042835,-9.330204,-0.0030543262,-6.1086525E-4,-0.0018325958,TREMOR,026369732c41
1776793505768,1901730219590563,-2.1811178,1.2066777,-9.323022,-0.004276057,0.0,0.0,TREMOR,026369732c41
1776793505776,1901730227613322,-2.1930888,1.2138603,-9.323022,-0.0036651916,-0.0018325958,6.1086525E-4,TREMOR,026369732c41
1776793505784,1901730235609390,-2.219425,1.2066777,-9.330204,-0.004276057,-0.0018325958,-0.0018325958,TREMOR,026369732c41
1776793505792,1901730243606227,-2.2290018,1.2282255,-9.315839,-0.005497787,-0.0030543262,-0.0030543262,TREMOR,026369732c41
1776793505800,1901730251602526,-2.255338,1.2186487,-9.320627,-0.004886922,-0.004886922,-0.002443461,TREMOR,026369732c41
1776793505808,1901730259596055,-2.27928,1.2282255,-9.31105,-0.0030543262,-0.0067195175,-0.0018325958,TREMOR,026369732c41
1776793505816,1901730267593353,-2.2864625,1.2282255,-9.315839,-0.002443461,-0.008552114,-0.0036651916,TREMOR,026369732c41
1776793505824,1901730275588344,-2.2960393,1.2306197,-9.301474,-0.0018325958,-0.009773844,-0.0018325958,TREMOR,026369732c41
1776793505832,1901730283613027,-2.327164,1.2234371,-9.313444,-0.0012217305,-0.009162978,-0.004276057,TREMOR,026369732c41
1776793505840,1901730291611711,-2.3127987,1.2401965,-9.306262,-0.0030543262,-0.010995574,-0.0018325958,TREMOR,026369732c41
1776793505848,1901730299604932,-2.315193,1.2162545,-9.313444,-0.0018325958,-0.009773844,-0.0030543262,TREMOR,026369732c41
1776793505856,1901730307603461,-2.3247697,1.2138603,-9.303867,-0.0018325958,-0.0061086523,-0.0030543262,TREMOR,026369732c41
1776793505864,1901730315597298,-2.3223755,1.2114661,-9.299079,0.0,-0.004886922,-0.002443461,TREMOR,026369732c41
1776793505872,1901730323593520,-2.303222,1.2210429,-9.313444,-0.002443461,-0.0030543262,-0.0030543262,TREMOR,026369732c41
1776793505880,1901730331588665,-2.3056161,1.2186487,-9.296685,-0.002443461,-6.1086525E-4,-0.002443461,TREMOR,026369732c41
1776793505888,1901730339614809,-2.2888567,1.2449849,-9.308656,-0.0018325958,6.1086525E-4,-0.005497787,TREMOR,026369732c41
1776793505896,1901730347609184,-2.2768857,1.2282255,-9.306262,-0.0030543262,0.0018325958,-0.0036651916,TREMOR,026369732c41
1776793505904,1901730355606098,-2.2816741,1.2282255,-9.308656,-0.002443461,0.002443461,-0.004886922,TREMOR,026369732c41
1776793505912,1901730363603628,-2.2385786,1.2162545,-9.308656,-0.0030543262,0.002443461,-0.0036651916,TREMOR,026369732c41
1776793505920,1901730371597773,-2.255338,1.2090719,-9.323022,-0.0030543262,0.0030543262,-0.0030543262,TREMOR,026369732c41
1776793505928,1901730379593456,-2.2290018,1.2042835,-9.332599,-0.0036651916,0.002443461,-0.0036651916,TREMOR,026369732c41
1776793505936,1901730387587369,-2.2146366,1.1971009,-9.313444,-0.004276057,0.002443461,-0.0012217305,TREMOR,026369732c41
1776793505944,1901730395582745,-2.2122424,1.1994951,-9.330204,-0.004276057,0.0018325958,0.0,TREMOR,026369732c41
1776793505952,1901730403609813,-2.195483,1.1971009,-9.32781,-0.004276057,0.0018325958,0.0,TREMOR,026369732c41
1776793505960,1901730411604880,-2.2026656,1.1827357,-9.346964,-0.002443461,-6.1086525E-4,-0.0012217305,TREMOR,026369732c41
1776793505968,1901730419602025,-2.2098482,1.1731589,-9.3421755,-0.002443461,-0.004276057,0.002443461,TREMOR,026369732c41
1776793505976,1901730427595246,-2.1739352,1.1611878,-9.330204,-6.1086525E-4,-0.004276057,0.002443461,TREMOR,026369732c41
1776793505984,1901730435591622,-2.1811178,1.1755531,-9.339781,6.1086525E-4,-0.0067195175,0.004276057,TREMOR,026369732c41
1776793505992,1901730443588459,-2.219425,1.1587936,-9.334992,6.1086525E-4,-0.007941248,0.0036651916,TREMOR,026369732c41
1776793506000,1901730451612142,-2.1883004,1.1707647,-9.330204,6.1086525E-4,-0.01160644,0.0030543262,TREMOR,026369732c41
1776793506008,1901730459610595,-2.207454,1.1707647,-9.32781,0.0012217305,-0.014049901,0.0012217305,TREMOR,026369732c41
1776793506016,1901730467606277,-2.207454,1.1827357,-9.330204,0.0,-0.016493361,0.002443461,TREMOR,026369732c41
1776793506024,1901730475600807,-2.2361844,1.1994951,-9.308656,-6.1086525E-4,-0.015882496,0.0018325958,TREMOR,026369732c41
1776793506032,1901730483595875,-2.2529438,1.2018893,-9.308656,0.0,-0.016493361,-6.1086525E-4,TREMOR,026369732c41
1776793506040,1901730491591789,-2.2744915,1.2066777,-9.296685,-6.1086525E-4,-0.014660766,6.1086525E-4,TREMOR,026369732c41
1776793506048,1901730499587472,-2.3080103,1.2066777,-9.308656,-0.0018325958,-0.014660766,-0.002443461,TREMOR,026369732c41
1776793506056,1901730507612770,-2.327164,1.2258313,-9.299079,-0.0012217305,-0.012217305,0.0,TREMOR,026369732c41
1776793506064,1901730515608761,-2.327164,1.2210429,-9.277532,-0.002443461,-0.01160644,-0.0012217305,TREMOR,026369732c41
1776793506072,1901730523604752,-2.3295584,1.2449849,-9.284714,-0.002443461,-0.009162978,-0.0018325958,TREMOR,026369732c41
1776793506080,1901730531601281,-2.3535004,1.2378023,-9.294291,-0.004276057,-0.007330383,-0.004276057,TREMOR,026369732c41
1776793506088,1901730539596965,-2.3630772,1.2569559,-9.294291,-0.004886922,-0.004276057,-0.0018325958,TREMOR,026369732c41
1776793506096,1901730547590185,-2.3511062,1.2569559,-9.31105,-0.004276057,-0.0036651916,-0.002443461,TREMOR,026369732c41
1776793506104,1901730555587407,-2.3319526,1.2617443,-9.308656,-0.0030543262,0.0,-0.0012217305,TREMOR,026369732c41
1776793506112,1901730563615398,-2.3439236,1.2689269,-9.301474,-0.005497787,6.1086525E-4,0.0,TREMOR,026369732c41
1776793506120,1901730571609851,-2.336741,1.2497733,-9.296685,-0.004276057,0.0030543262,6.1086525E-4,TREMOR,026369732c41
1776793506128,1901730579602765,-2.3199813,1.2354081,-9.315839,-0.004886922,0.002443461,0.0012217305,TREMOR,026369732c41
1776793506136,1901730587599447,-2.2960393,1.2138603,-9.31105,-0.0030543262,0.002443461,0.004276057,TREMOR,026369732c41
1776793506144,1901730595594515,-2.2864625,1.2138603,-9.337387,-0.0036651916,0.002443461,0.004276057,TREMOR,026369732c41
1776793506152,1901730603591429,-2.2649148,1.1875241,-9.320627,-0.002443461,0.0018325958,0.0030543262,TREMOR,026369732c41
1776793506160,1901730611586189,-2.2361844,1.1779473,-9.323022,-6.1086525E-4,-6.1086525E-4,0.0036651916,TREMOR,026369732c41
1776793506168,1901730619613180,-2.2290018,1.1707647,-9.325416,-0.0018325958,6.1086525E-4,0.007941248,TREMOR,026369732c41
1776793506176,1901730627608247,-2.219425,1.151611,-9.32781,-0.0018325958,-0.002443461,0.0061086523,TREMOR,026369732c41
1776793506184,1901730635604623,-2.2050598,1.151611,-9.337387,-0.002443461,-0.0012217305,0.005497787,TREMOR,026369732c41
1776793506192,1901730643599691,-2.207454,1.1611878,-9.32781,-0.0018325958,-0.0018325958,0.0030543262,TREMOR,026369732c41
1776793506200,1901730651596220,-2.2050598,1.1659763,-9.334992,-0.004276057,-0.0030543262,0.004276057,TREMOR,026369732c41
1776793506208,1901730659591365,-2.2026656,1.1659763,-9.334992,-0.004276057,-0.0018325958,0.0012217305,TREMOR,026369732c41
1776793506216,1901730667586049,-2.207454,1.1707647,-9.334992,-0.005497787,-0.0018325958,0.0030543262,TREMOR,026369732c41
1776793506224,1901730675613731,-2.2290018,1.1779473,-9.315839,-0.0067195175,-0.0012217305,6.1086525E-4,TREMOR,026369732c41
1776793506232,1901730683608491,-2.231396,1.2066777,-9.313444,-0.007330383,0.0012217305,-0.0018325958,TREMOR,026369732c41
1776793506240,1901730691602713,-2.2649148,1.2186487,-9.291897,-0.0067195175,6.1086525E-4,-0.0018325958,TREMOR,026369732c41
1776793506248,1901730699599319,-2.2601264,1.2306197,-9.306262,-0.0061086523,6.1086525E-4,-0.0030543262,TREMOR,026369732c41
1776793506256,1901730707594310,-2.2864625,1.2497733,-9.296685,-0.0067195175,0.0,-0.002443461,TREMOR,026369732c41
1776793506264,1901730715592531,-2.2840683,1.2617443,-9.291897,-0.0061086523,0.0,-0.004276057,TREMOR,026369732c41
1776793506272,1901730723586984,-2.3127987,1.2545617,-9.306262,-0.0061086523,0.0,0.0,TREMOR,026369732c41
1776793506280,1901730731612513,-2.3199813,1.2545617,-9.301474,-0.0061086523,0.0,0.0,TREMOR,026369732c41
1776793506288,1901730739607889,-2.303222,1.2665327,-9.301474,-0.004886922,-0.0012217305,-6.1086525E-4,TREMOR,026369732c41
1776793506296,1901730747603880,-2.3319526,1.2593501,-9.306262,-0.0036651916,-6.1086525E-4,0.0,TREMOR,026369732c41
1776793506304,1901730755598639,-2.3056161,1.2425907,-9.306262,-0.0030543262,-0.002443461,0.004276057,TREMOR,026369732c41
1776793506312,1901730763595784,-2.3008277,1.2354081,-9.313444,-0.0030543262,-0.0018325958,0.0030543262,TREMOR,026369732c41
1776793506320,1901730771588775,-2.2840683,1.2449849,-9.306262,-6.1086525E-4,-0.0018325958,0.0030543262,TREMOR,026369732c41
1776793506328,1901730779585689,-2.2864625,1.2186487,-9.306262,0.0,-0.002443461,0.004886922,TREMOR,026369732c41
1776793506336,1901730787612065,-2.267309,1.1875241,-9.323022,0.0,-6.1086525E-4,0.005497787,TREMOR,026369732c41
1776793506344,1901730795609901,-2.2601264,1.1899183,-9.315839,6.1086525E-4,-0.0018325958,0.004276057,TREMOR,026369732c41
1776793506352,1901730803603123,-2.2577322,1.1683705,-9.320627,6.1086525E-4,-0.0012217305,0.005497787,TREMOR,026369732c41
1776793506360,1901730811597652,-2.231396,1.1683705,-9.3182335,-6.1086525E-4,6.1086525E-4,0.0030543262,TREMOR,026369732c41
1776793506368,1901730819596028,-2.2385786,1.1707647,-9.3182335,-0.0018325958,0.0012217305,0.004276057,TREMOR,026369732c41
1776793506376,1901730827588942,-2.231396,1.1779473,-9.330204,-0.0012217305,6.1086525E-4,6.1086525E-4,TREMOR,026369732c41
1776793506384,1901730835585547,-2.2337902,1.1827357,-9.323022,-0.004276057,6.1086525E-4,0.0030543262,TREMOR,026369732c41
1776793506392,1901730843612308,-2.2337902,1.1707647,-9.332599,-0.0036651916,0.0012217305,0.0,TREMOR,026369732c41
1776793506400,1901730851606760,-2.243367,1.1899183,-9.31105,-0.0061086523,0.002443461,6.1086525E-4,TREMOR,026369732c41
1776793506408,1901730859601828,-2.255338,1.1779473,-9.299079,-0.007330383,0.0018325958,-0.0018325958,TREMOR,026369732c41
1776793506416,1901730867597819,-2.2649148,1.2090719,-9.323022,-0.007330383,0.002443461,-0.0018325958,TREMOR,026369732c41
1776793506424,1901730875593194,-2.2697031,1.2378023,-9.313444,-0.007330383,0.0036651916,-0.0030543262,TREMOR,026369732c41
1776793506432,1901730883588646,-2.2840683,1.2114661,-9.301474,-0.0067195175,0.004276057,-0.002443461,TREMOR,026369732c41
1776793506440,1901730891617176,-2.2864625,1.2210429,-9.291897,-0.0067195175,0.0036651916,-0.0030543262,TREMOR,026369732c41
1776793506448,1901730899612244,-2.2936451,1.2593501,-9.301474,-0.0061086523,0.0030543262,-0.0030543262,TREMOR,026369732c41
1776793506456,1901730907606773,-2.303222,1.2641385,-9.306262,-0.0061086523,0.002443461,-0.0030543262,TREMOR,026369732c41
1776793506464,1901730915601456,-2.3080103,1.271321,-9.308656,-0.005497787,0.0012217305,-0.0030543262,TREMOR,026369732c41
1776793506472,1901730923599062,-2.2840683,1.2593501,-9.299079,-0.0061086523,0.0012217305,-0.0012217305,TREMOR,026369732c41
1776793506480,1901730931594053,-2.2840683,1.2665327,-9.301474,-0.004886922,6.1086525E-4,6.1086525E-4,TREMOR,026369732c41
1776793506488,1901730939589198,-2.2649148,1.2569559,-9.308656,-0.004276057,0.0,6.1086525E-4,TREMOR,026369732c41
1776793506496,1901730947585804,-2.27928,1.2497733,-9.320627,-0.0030543262,-6.1086525E-4,0.0012217305,TREMOR,026369732c41
1776793506504,1901730955611256,-2.267309,1.2306197,-9.313444,-0.0030543262,6.1086525E-4,0.0030543262,TREMOR,026369732c41
1776793506512,1901730963606093,-2.2481554,1.2306197,-9.334992,-0.0030543262,-6.1086525E-4,0.004276057,TREMOR,026369732c41
1776793506520,1901730971603007,-2.243367,1.2162545,-9.344569,-6.1086525E-4,-6.1086525E-4,0.004276057,TREMOR,026369732c41
1776793506528,1901730979597767,-2.231396,1.2066777,-9.337387,0.0,6.1086525E-4,0.002443461,TREMOR,026369732c41
1776793506536,1901730987592451,-2.2266076,1.1827357,-9.339781,0.0,0.0,0.0030543262,TREMOR,026369732c41
1776793506544,1901730995587825,-2.2266076,1.1947067,-9.339781,6.1086525E-4,-0.0018325958,0.004886922,TREMOR,026369732c41
1776793506552,1901731003583278,-2.2409728,1.1803415,-9.346964,0.0012217305,-0.0030543262,0.0030543262,TREMOR,026369732c41
1776793506560,1901731011612500,-2.2098482,1.1659763,-9.354146,0.0012217305,-0.004886922,0.004886922,TREMOR,026369732c41
1776793506568,1901731019606568,-2.2170308,1.151611,-9.356541,0.0030543262,-0.004886922,0.0030543262,TREMOR,026369732c41
1776793506576,1901731027602866,-2.2361844,1.1707647,-9.344569,0.0012217305,-0.007330383,0.0030543262,TREMOR,026369732c41
1776793506584,1901731035597318,-2.2242134,1.1803415,-9.315839,0.0012217305,-0.01160644,0.0030543262,TREMOR,026369732c41
1776793506592,1901731043594001,-2.2242134,1.1731589,-9.32781,0.0,-0.008552114,0.0018325958,TREMOR,026369732c41
1776793506600,1901731051587454,-2.2601264,1.1923125,-9.337387,-0.0012217305,-0.007330383,0.0030543262,TREMOR,026369732c41
1776793506608,1901731059583752,-2.2720973,1.1994951,-9.325416,-0.0030543262,-0.009162978,0.0018325958,TREMOR,026369732c41
1776793506616,1901731067609282,-2.2649148,1.2090719,-9.320627,-0.0036651916,-0.009162978,0.0,TREMOR,026369732c41
1776793506624,1901731075605887,-2.2816741,1.2090719,-9.306262,-0.0036651916,-0.0067195175,-6.1086525E-4,TREMOR,026369732c41
1776793506632,1901731083601571,-2.2960393,1.2234371,-9.3182335,-0.004276057,-0.004886922,0.0,TREMOR,026369732c41
1776793506640,1901731091598177,-2.2960393,1.2425907,-9.306262,-0.0061086523,-0.0030543262,-0.0030543262,TREMOR,026369732c41
1776793506648,1901731099592707,-2.3295584,1.2497733,-9.306262,-0.007941248,-6.1086525E-4,-0.0036651916,TREMOR,026369732c41
1776793506656,1901731107587698,-2.315193,1.2569559,-9.279925,-0.0067195175,0.0018325958,-0.0018325958,TREMOR,026369732c41
1776793506664,1901731115584689,-2.3199813,1.2689269,-9.296685,-0.0067195175,6.1086525E-4,-0.0018325958,TREMOR,026369732c41
1776793506672,1901731123608602,-2.3223755,1.2593501,-9.308656,-0.0067195175,0.0036651916,-0.0012217305,TREMOR,026369732c41
1776793506680,1901731131606208,-2.327164,1.2569559,-9.32781,-0.0061086523,0.004886922,-0.0018325958,TREMOR,026369732c41
1776793506688,1901731139601891,-2.315193,1.2425907,-9.325416,-0.0061086523,0.005497787,-0.0012217305,TREMOR,026369732c41
1776793506696,1901731147596267,-2.3199813,1.2425907,-9.32781,-0.0061086523,0.0067195175,6.1086525E-4,TREMOR,026369732c41
1776793506704,1901731155593489,-2.2960393,1.2306197,-9.349358,-0.004276057,0.0061086523,0.0012217305,TREMOR,026369732c41
1776793506712,1901731163587094,-2.27928,1.2282255,-9.334992,-0.0030543262,0.0061086523,6.1086525E-4,TREMOR,026369732c41
1776793506720,1901731171613547,-2.2649148,1.1971009,-9.330204,-0.0030543262,0.007330383,0.0012217305,TREMOR,026369732c41
1776793506728,1901731179609769,-2.255338,1.2018893,-9.351752,-0.0030543262,0.0067195175,0.0018325958,TREMOR,026369732c41
1776793506736,1901731187605144,-2.231396,1.1851299,-9.344569,-0.0036651916,0.005497787,0.0012217305,TREMOR,026369732c41
1776793506744,1901731195602751,-2.2290018,1.1803415,-9.351752,-0.002443461,0.004886922,0.0012217305,TREMOR,026369732c41
1776793506752,1901731203596894,-2.207454,1.1803415,-9.332599,-0.0018325958,0.004276057,6.1086525E-4,TREMOR,026369732c41
1776793506760,1901731211592501,-2.2050598,1.1899183,-9.349358,-0.0036651916,0.0018325958,6.1086525E-4,TREMOR,026369732c41
1776793506768,1901731219588261,-2.195483,1.1827357,-9.349358,-0.0036651916,0.0030543262,-0.0012217305,TREMOR,026369732c41
1776793506776,1901731227582406,-2.2002714,1.1875241,-9.339781,-0.0036651916,0.0036651916,-0.002443461,TREMOR,026369732c41
1776793506784,1901731235609397,-2.195483,1.2114661,-9.3421755,-0.0036651916,0.0030543262,-0.004276057,TREMOR,026369732c41
1776793506792,1901731243604464,-2.207454,1.2042835,-9.337387,-0.005497787,0.0036651916,-0.002443461,TREMOR,026369732c41
1776793506800,1901731251602301,-2.1978772,1.2114661,-9.325416,-0.004886922,0.0036651916,-0.0067195175,TREMOR,026369732c41
1776793506808,1901731259597677,-2.2266076,1.2186487,-9.323022,-0.004276057,0.0036651916,-0.004886922,TREMOR,026369732c41
1776793506816,1901731267591283,-2.2266076,1.2258313,-9.320627,-0.005497787,0.0030543262,-0.004886922,TREMOR,026369732c41
1776793506824,1901731275586890,-2.2385786,1.2354081,-9.315839,-0.0030543262,0.0,-0.004276057,TREMOR,026369732c41
1776793506832,1901731283583495,-2.2409728,1.2330139,-9.325416,-0.004276057,0.0,-0.002443461,TREMOR,026369732c41
1776793506840,1901731291610255,-2.2505496,1.2497733,-9.323022,-0.0018325958,-0.002443461,-0.0018325958,TREMOR,026369732c41
1776793506848,1901731299604708,-2.2505496,1.2473791,-9.303867,-0.0018325958,-0.002443461,-6.1086525E-4,TREMOR,026369732c41
1776793506856,1901731307599776,-2.255338,1.2258313,-9.32781,-6.1086525E-4,-0.0061086523,0.0012217305,TREMOR,026369732c41
1776793506864,1901731315596151,-2.267309,1.2354081,-9.3182335,-6.1086525E-4,-0.005497787,0.002443461,TREMOR,026369732c41
1776793506872,1901731323592449,-2.2577322,1.2282255,-9.332599,0.0,-0.0067195175,0.004276057,TREMOR,026369732c41
1776793506880,1901731331587132,-2.2385786,1.2138603,-9.3421755,-6.1086525E-4,-0.009162978,0.0061086523,TREMOR,026369732c41
1776793506888,1901731339612046,-2.2481554,1.2114661,-9.325416,-6.1086525E-4,-0.01038471,0.007330383,TREMOR,026369732c41
1776793506896,1901731347608653,-2.2505496,1.2042835,-9.339781,-0.0012217305,-0.01038471,0.0061086523,TREMOR,026369732c41
1776793506904,1901731355602875,-2.243367,1.2018893,-9.320627,6.1086525E-4,-0.01282817,0.004276057,TREMOR,026369732c41
1776793506912,1901731363599403,-2.2625206,1.2018893,-9.325416,-0.002443461,-0.01160644,0.0036651916,TREMOR,026369732c41
1776793506920,1901731371595086,-2.2625206,1.2018893,-9.330204,-0.0018325958,-0.008552114,0.002443461,TREMOR,026369732c41
1776793506928,1901731379592616,-2.2649148,1.1971009,-9.337387,-0.0030543262,-0.007941248,0.002443461,TREMOR,026369732c41
1776793506936,1901731387587453,-2.27928,1.1923125,-9.32781,-0.0030543262,-0.0067195175,0.0012217305,TREMOR,026369732c41
1776793506944,1901731395613598,-2.2960393,1.2042835,-9.332599,-0.004886922,-0.0061086523,-0.002443461,TREMOR,026369732c41
1776793506952,1901731403608665,-2.2936451,1.1994951,-9.344569,-0.004886922,-0.0030543262,-0.0030543262,TREMOR,026369732c41
1776793506960,1901731411604887,-2.303222,1.2234371,-9.325416,-0.007330383,-6.1086525E-4,-0.0012217305,TREMOR,026369732c41
1776793506968,1901731419601801,-2.3008277,1.2282255,-9.3182335,-0.007330383,6.1086525E-4,-0.002443461,TREMOR,026369732c41
1776793506976,1901731427595715,-2.3319526,1.2258313,-9.323022,-0.007330383,0.004276057,0.0,TREMOR,026369732c41
1776793506984,1901731435590475,-2.303222,1.2425907,-9.323022,-0.004276057,0.004886922,6.1086525E-4,TREMOR,026369732c41
1776793506992,1901731443585465,-2.3104045,1.2330139,-9.3182335,-0.005497787,0.0030543262,6.1086525E-4,TREMOR,026369732c41
1776793507000,1901731451612533,-2.2888567,1.2282255,-9.306262,-0.0030543262,0.004886922,0.0018325958,TREMOR,026369732c41
1776793507008,1901731459608909,-2.3008277,1.2186487,-9.31105,-0.002443461,0.004276057,0.004276057,TREMOR,026369732c41
1776793507016,1901731467604515,-2.2768857,1.2018893,-9.3182335,-0.0030543262,0.002443461,0.0036651916,TREMOR,026369732c41
1776793507024,1901731475598122,-2.267309,1.2114661,-9.334992,-0.0012217305,0.0018325958,0.0030543262,TREMOR,026369732c41
1776793507032,1901731483595265,-2.2577322,1.2162545,-9.325416,-0.0012217305,0.0012217305,0.002443461,TREMOR,026369732c41
1776793507040,1901731491589180,-2.2505496,1.1923125,-9.320627,-0.002443461,6.1086525E-4,0.002443461,TREMOR,026369732c41
1776793507048,1901731499584863,-2.2337902,1.2138603,-9.3182335,-0.0030543262,6.1086525E-4,0.0018325958,TREMOR,026369732c41
1776793507056,1901731507611546,-2.231396,1.2114661,-9.308656,-0.002443461,0.0,6.1086525E-4,TREMOR,026369732c41
1776793507064,1901731515608460,-2.2361844,1.2066777,-9.315839,-0.004886922,0.0018325958,0.0,TREMOR,026369732c41
1776793507072,1901731523604758,-2.2290018,1.2282255,-9.32781,-0.004276057,0.004886922,-0.0030543262,TREMOR,026369732c41
1776793507080,1901731531599595,-2.2505496,1.2186487,-9.313444,-0.005497787,0.0061086523,-0.0030543262,TREMOR,026369732c41
1776793507088,1901731539595278,-2.2409728,1.2210429,-9.332599,-0.007330383,0.0067195175,-0.005497787,TREMOR,026369732c41
1776793507096,1901731547590577,-2.2697031,1.2282255,-9.325416,-0.007941248,0.008552114,-0.0067195175,TREMOR,026369732c41
1776793507104,1901731555588184,-2.2505496,1.2378023,-9.337387,-0.007330383,0.009162978,-0.0061086523,TREMOR,026369732c41
1776793507112,1901731563612404,-2.2744915,1.2330139,-9.330204,-0.007941248,0.010995574,-0.007941248,TREMOR,026369732c41
1776793507120,1901731571609011,-2.267309,1.2378023,-9.325416,-0.007330383,0.01038471,-0.004886922,TREMOR,026369732c41
1776793507128,1901731579604079,-2.2840683,1.2282255,-9.323022,-0.005497787,0.01038471,-0.005497787,TREMOR,026369732c41
1776793507136,1901731587597301,-2.2697031,1.2378023,-9.320627,-0.005497787,0.009773844,-0.004276057,TREMOR,026369732c41
1776793507144,1901731595596445,-2.2625206,1.2497733,-9.3182335,-0.0036651916,0.007941248,-0.0030543262,TREMOR,026369732c41
1776793507152,1901731603590590,-2.267309,1.2186487,-9.332599,-0.0018325958,0.0061086523,-0.0030543262,TREMOR,026369732c41
1776793507160,1901731611586273,-2.2337902,1.2066777,-9.323022,-0.0018325958,0.0036651916,-0.0012217305,TREMOR,026369732c41
1776793507168,1901731619610879,-2.2337902,1.1947067,-9.330204,0.0012217305,0.002443461,6.1086525E-4,TREMOR,026369732c41
1776793507176,1901731627608024,-2.2002714,1.1994951,-9.323022,0.0018325958,0.0012217305,6.1086525E-4,TREMOR,026369732c41
1776793507184,1901731635601938,-2.2002714,1.1971009,-9.3182335,-6.1086525E-4,-6.1086525E-4,0.0012217305,TREMOR,026369732c41
1776793507192,1901731643598467,-2.1787236,1.1755531,-9.325416,6.1086525E-4,-0.0018325958,0.0030543262,TREMOR,026369732c41
1776793507200,1901731651594150,-2.1883004,1.1707647,-9.323022,6.1086525E-4,-0.004276057,0.0036651916,TREMOR,026369732c41
1776793507208,1901731659590141,-2.1667526,1.1731589,-9.32781,-0.0012217305,-0.005497787,0.0036651916,TREMOR,026369732c41
1776793507216,1901731667586209,-2.1739352,1.1659763,-9.3182335,-0.0030543262,-0.007941248,0.0018325958,TREMOR,026369732c41
1776793507224,1901731675611123,-2.1787236,1.1659763,-9.351752,-0.004276057,-0.0061086523,0.002443461,TREMOR,026369732c41
1776793507232,1901731683607114,-2.1811178,1.1779473,-9.323022,-0.004276057,-0.007330383,0.0012217305,TREMOR,026369732c41
1776793507240,1901731691603335,-2.207454,1.2042835,-9.334992,-0.004276057,-0.0067195175,0.0018325958,TREMOR,026369732c41
1776793507248,1901731699600326,-2.219425,1.2114661,-9.325416,-0.004276057,-0.008552114,6.1086525E-4,TREMOR,026369732c41
1776793507256,1901731707593240,-2.2361844,1.2138603,-9.31105,-0.004276057,-0.0061086523,0.0018325958,TREMOR,026369732c41
1776793507264,1901731715589769,-2.255338,1.2162545,-9.339781,-0.004886922,-0.0067195175,-6.1086525E-4,TREMOR,026369732c41
1776793507272,1901731723586683,-2.2768857,1.2258313,-9.320627,-0.004276057,-0.007941248,0.0,TREMOR,026369732c41
1776793507280,1901731731610981,-2.2720973,1.2306197,-9.320627,-0.0030543262,-0.007941248,0.0018325958,TREMOR,026369732c41
1776793507288,1901731739607280,-2.2864625,1.2473791,-9.315839,-0.002443461,-0.008552114,0.0012217305,TREMOR,026369732c41
1776793507296,1901731747602732,-2.2984335,1.2162545,-9.32781,-0.002443461,-0.009162978,0.0036651916,TREMOR,026369732c41
1776793507304,1901731755597416,-2.303222,1.2449849,-9.323022,-0.0030543262,-0.009162978,0.004276057,TREMOR,026369732c41
1776793507312,1901731763595330,-2.303222,1.2210429,-9.303867,-0.0012217305,-0.01160644,0.004276057,TREMOR,026369732c41
1776793507320,1901731771589397,-2.3247697,1.2210429,-9.31105,-0.002443461,-0.01282817,0.004886922,TREMOR,026369732c41
1776793507328,1901731779584157,-2.3127987,1.2306197,-9.320627,-0.0012217305,-0.01282817,0.0061086523,TREMOR,026369732c41
1776793507336,1901731787609994,-2.315193,1.2282255,-9.3182335,-6.1086525E-4,-0.012217305,0.004276057,TREMOR,026369732c41
1776793507344,1901731795606908,-2.3104045,1.2354081,-9.320627,-0.0018325958,-0.010995574,0.004886922,TREMOR,026369732c41
1776793507352,1901731803601976,-2.291251,1.2090719,-9.315839,-0.0018325958,-0.0067195175,0.0030543262,TREMOR,026369732c41
1776793507360,1901731811598043,-2.2960393,1.2306197,-9.313444,-0.0036651916,-0.005497787,0.0018325958,TREMOR,026369732c41
1776793507368,1901731819594265,-2.291251,1.2258313,-9.31105,-0.004886922,-0.0036651916,0.002443461,TREMOR,026369732c41
1776793507376,1901731827590871,-2.27928,1.2210429,-9.320627,-0.004276057,0.0012217305,-0.0018325958,TREMOR,026369732c41
1776793507384,1901731835585401,-2.2768857,1.2330139,-9.308656,-0.004886922,0.004886922,-0.004276057,TREMOR,026369732c41
1776793507392,1901731843611238,-2.27928,1.2330139,-9.313444,-0.004886922,0.0067195175,-0.0061086523,TREMOR,026369732c41
1776793507400,1901731851606536,-2.2864625,1.2401965,-9.315839,-0.0067195175,0.007941248,-0.004886922,TREMOR,026369732c41
1776793507408,1901731859601988,-2.2936451,1.2521675,-9.306262,-0.005497787,0.009162978,-0.004886922,TREMOR,026369732c41
1776793507416,1901731867596364,-2.2768857,1.2306197,-9.306262,-0.005497787,0.01038471,-0.0036651916,TREMOR,026369732c41
1776793507424,1901731875592047,-2.2720973,1.2641385,-9.315839,-0.004886922,0.009773844,-0.0067195175,TREMOR,026369732c41
1776793507432,1901731883588730,-2.2481554,1.2378023,-9.3182335,-0.004886922,0.009773844,-0.004276057,TREMOR,026369732c41
1776793507440,1901731891584644,-2.2649148,1.2186487,-9.325416,-0.004276057,0.007330383,-0.002443461,TREMOR,026369732c41
1776793507448,1901731899610865,-2.2409728,1.2330139,-9.332599,-0.0018325958,0.0067195175,-0.0012217305,TREMOR,026369732c41
1776793507456,1901731907607395,-2.2170308,1.2114661,-9.320627,-0.002443461,0.004276057,0.0,TREMOR,026369732c41
1776793507464,1901731915600694,-2.2170308,1.2090719,-9.32781,0.0,0.002443461,0.0012217305,TREMOR,026369732c41
1776793507472,1901731923595761,-2.195483,1.1899183,-9.332599,-0.002443461,6.1086525E-4,0.0018325958,TREMOR,026369732c41
1776793507480,1901731931592290,-2.2122424,1.1779473,-9.332599,-0.0012217305,6.1086525E-4,0.0030543262,TREMOR,026369732c41
1776793507488,1901731939588281,-2.2026656,1.1827357,-9.323022,-6.1086525E-4,-0.002443461,0.004886922,TREMOR,026369732c41
1776793507496,1901731947614503,-2.1811178,1.1803415,-9.3182335,-6.1086525E-4,-0.0018325958,0.0036651916,TREMOR,026369732c41
1776793507504,1901731955608648,-2.1906946,1.1659763,-9.330204,-0.002443461,-0.004276057,0.0030543262,TREMOR,026369732c41
1776793507512,1901731963605869,-2.4995465,0.9648633,-9.425972,-0.0030543262,-0.005497787,0.0030543262,TREMOR,026369732c41
1776793507520,1901731971602090,-2.0638018,1.2258313,-9.306262,-0.005497787,-0.009162978,0.01160644,TREMOR,026369732c41
1776793507528,1901731979598466,-2.1643584,1.1803415,-9.346964,-0.0018325958,-0.014049901,0.009773844,TREMOR,026369732c41
1776793507536,1901731987593226,-2.2218192,1.2090719,-9.334992,-0.0036651916,-0.009773844,0.004886922,TREMOR,026369732c41
1776793507544,1901731995588525,-2.2457612,1.2042835,-9.334992,-0.004886922,-0.007330383,0.0030543262,TREMOR,026369732c41
1776793507552,1901732003614362,-2.2649148,1.1994951,-9.294291,-0.004886922,-0.0061086523,6.1086525E-4,TREMOR,026369732c41
1776793507560,1901732011610121,-2.2816741,1.2114661,-9.31105,-0.0061086523,-0.0067195175,6.1086525E-4,TREMOR,026369732c41
1776793507568,1901732019604805,-2.2960393,1.2425907,-9.294291,-0.007330383,-0.0061086523,-0.0018325958,TREMOR,026369732c41
1776793507576,1901732027600565,-2.3080103,1.2449849,-9.306262,-0.007330383,-0.004886922,-0.0012217305,TREMOR,026369732c41
1776793507584,1901732035596479,-2.3104045,1.2689269,-9.303867,-0.009162978,-0.0036651916,-0.004276057,TREMOR,026369732c41
1776793507592,1901732043592778,-2.3415294,1.2569559,-9.299079,-0.008552114,-0.0018325958,-0.0018325958,TREMOR,026369732c41
1776793507600,1901732051588153,-2.3391352,1.2808979,-9.313444,-0.008552114,0.0,-0.002443461,TREMOR,026369732c41
1776793507608,1901732059583528,-2.348712,1.2689269,-9.303867,-0.007941248,0.004886922,-0.002443461,TREMOR,026369732c41
1776793507616,1901732067609134,-2.3343468,1.271321,-9.306262,-0.008552114,0.0061086523,-0.0012217305,TREMOR,026369732c41
1776793507624,1901732075605356,-2.3343468,1.2785037,-9.301474,-0.007330383,0.007941248,-6.1086525E-4,TREMOR,026369732c41
1776793507632,1901732083600424,-2.3056161,1.2545617,-9.3182335,-0.0061086523,0.007330383,-0.0036651916,TREMOR,026369732c41
1776793507640,1901732091595877,-2.2936451,1.2449849,-9.315839,-0.004276057,0.007941248,6.1086525E-4,TREMOR,026369732c41
1776793507648,1901732099593713,-2.2840683,1.2497733,-9.337387,-0.0036651916,0.0067195175,0.0,TREMOR,026369732c41
1776793507656,1901732107586627,-2.2601264,1.2186487,-9.339781,-0.004276057,0.0067195175,0.002443461,TREMOR,026369732c41
1776793507664,1901732115581618,-2.2266076,1.1971009,-9.315839,-0.0030543262,0.004886922,0.0036651916,TREMOR,026369732c41
1776793507672,1901732123609378,-2.2050598,1.1899183,-9.3421755,-0.0012217305,0.0030543262,0.004886922,TREMOR,026369732c41
1776793507680,1901732131604446,-2.1811178,1.1875241,-9.3421755,-6.1086525E-4,0.0012217305,0.0030543262,TREMOR,026369732c41
1776793507688,1901732139600051,-2.1691468,1.1731589,-9.339781,-0.0012217305,0.0018325958,0.004276057,TREMOR,026369732c41
1776793507696,1901732147597350,-2.1811178,1.1707647,-9.325416,0.0,-0.0012217305,0.0018325958,TREMOR,026369732c41
1776793507704,1901732155593033,-2.1428106,1.1755531,-9.337387,0.0,-0.0036651916,6.1086525E-4,TREMOR,026369732c41
1776793507712,1901732163587794,-2.1691468,1.1659763,-9.339781,-0.0012217305,-0.0036651916,-6.1086525E-4,TREMOR,026369732c41
1776793507720,1901732171583400,-2.1691468,1.1755531,-9.323022,6.1086525E-4,-0.004276057,6.1086525E-4,TREMOR,026369732c41
1776793507728,1901732179608698,-2.171541,1.1851299,-9.313444,-0.0030543262,-0.007941248,-0.0030543262,TREMOR,026369732c41
1776793507736,1901732187603689,-2.1978772,1.2258313,-9.334992,-0.0030543262,-0.007330383,-0.002443461,TREMOR,026369732c41
1776793507744,1901732195600603,-2.2266076,1.2114661,-9.3182335,-0.0036651916,-0.007330383,0.0,TREMOR,026369732c41
1776793507752,1901732203595363,-2.2457612,1.2114661,-9.31105,-0.002443461,-0.009773844,-0.004276057,TREMOR,026369732c41
1776793507760,1901732211591354,-2.2649148,1.2282255,-9.31105,-0.0036651916,-0.008552114,-0.002443461,TREMOR,026369732c41
1776793507768,1901732219586421,-2.27928,1.2401965,-9.294291,-0.0036651916,-0.007941248,-0.002443461,TREMOR,026369732c41
1776793507776,1901732227613566,-2.2936451,1.2617443,-9.294291,-0.004886922,-0.005497787,0.0,TREMOR,026369732c41
1776793507784,1901732235608249,-2.3223755,1.2473791,-9.303867,-0.004886922,-0.004886922,-6.1086525E-4,TREMOR,026369732c41
1776793507792,1901732243605163,-2.3247697,1.2665327,-9.299079,-0.004886922,-0.005497787,-0.0012217305,TREMOR,026369732c41
1776793507800,1901732251600231,-2.3319526,1.2617443,-9.303867,-0.005497787,-0.004276057,0.0,TREMOR,026369732c41
1776793507808,1901732259594991,-2.3343468,1.271321,-9.289502,-0.004886922,-0.0036651916,0.0,TREMOR,026369732c41
1776793507816,1901732267590674,-2.3415294,1.2593501,-9.296685,-0.004886922,-0.002443461,6.1086525E-4,TREMOR,026369732c41
1776793507824,1901732275586742,-2.3415294,1.2354081,-9.299079,-0.005497787,6.1086525E-4,0.0,TREMOR,026369732c41
1776793507832,1901732283581810,-2.3247697,1.2330139,-9.315839,-0.0061086523,0.0012217305,-6.1086525E-4,TREMOR,026369732c41
1776793507840,1901732291609109,-2.3175871,1.2497733,-9.313444,-0.004886922,0.0036651916,-0.0018325958,TREMOR,026369732c41
1776793507848,1901732299601791,-2.2960393,1.2378023,-9.315839,-0.004886922,0.004886922,-6.1086525E-4,TREMOR,026369732c41
1776793507856,1901732307599628,-2.2864625,1.2521675,-9.325416,-0.004886922,0.007330383,0.0,TREMOR,026369732c41
1776793507864,1901732315596542,-2.2625206,1.2497733,-9.334992,-0.004276057,0.005497787,-0.0018325958,TREMOR,026369732c41
1776793507872,1901732323590610,-2.2361844,1.2306197,-9.332599,-0.005497787,0.008552114,-0.0018325958,TREMOR,026369732c41
1776793507880,1901732331584832,-2.2242134,1.2282255,-9.337387,-0.004886922,0.007941248,-6.1086525E-4,TREMOR,026369732c41
1776793507888,1901732339611283,-2.2146366,1.2306197,-9.3421755,-0.0030543262,0.0067195175,0.0012217305,TREMOR,026369732c41
1776793507896,1901732347608428,-2.2218192,1.2018893,-9.337387,-0.0036651916,0.0061086523,0.0,TREMOR,026369732c41
1776793507904,1901732355602035,-2.195483,1.2114661,-9.330204,-0.0036651916,0.007330383,-6.1086525E-4,TREMOR,026369732c41
1776793507912,1901732363597641,-2.1930888,1.1851299,-9.339781,-0.0018325958,0.005497787,0.0012217305,TREMOR,026369732c41
1776793507920,1901732371594632,-2.171541,1.1875241,-9.320627,-0.0030543262,0.002443461,0.0012217305,TREMOR,026369732c41
1776793507928,1901732379588776,-2.195483,1.1923125,-9.32781,-0.0018325958,-6.1086525E-4,0.0018325958,TREMOR,026369732c41
1776793507936,1901732387586844,-2.1763294,1.1827357,-9.323022,-0.0012217305,-0.002443461,0.0030543262,TREMOR,026369732c41
1776793507944,1901732395610604,-2.1883004,1.1827357,-9.332599,6.1086525E-4,-0.005497787,0.004886922,TREMOR,026369732c41
1776793507952,1901732403607749,-2.1930888,1.1803415,-9.337387,6.1086525E-4,-0.007941248,0.0030543262,TREMOR,026369732c41
1776793507960,1901732411602586,-2.219425,1.2018893,-9.303867,6.1086525E-4,-0.008552114,0.0036651916,TREMOR,026369732c41
1776793507968,1901732419598499,-2.2098482,1.1994951,-9.330204,0.0,-0.010995574,0.004276057,TREMOR,026369732c41
1776793507976,1901732427594260,-2.2481554,1.1971009,-9.308656,6.1086525E-4,-0.010995574,0.0036651916,TREMOR,026369732c41
1776793507984,1901732435588404,-2.2457612,1.2186487,-9.289502,0.0,-0.012217305,0.0018325958,TREMOR,026369732c41
1776793507992,1901732443584703,-2.267309,1.2210429,-9.296685,-0.0030543262,-0.01160644,0.002443461,TREMOR,026369732c41
1776793508000,1901732451611771,-2.3056161,1.2306197,-9.301474,-0.0030543262,-0.009773844,0.0018325958,TREMOR,026369732c41
1776793508008,1901732459607146,-2.303222,1.2593501,-9.303867,-0.0036651916,-0.009773844,0.0,TREMOR,026369732c41
1776793508016,1901732467603983,-2.3319526,1.2593501,-9.289502,-0.004276057,-0.007330383,-6.1086525E-4,TREMOR,026369732c41
1776793508024,1901732475598435,-2.327164,1.2665327,-9.296685,-0.005497787,-0.0061086523,-0.0012217305,TREMOR,026369732c41
1776793508032,1901732483594427,-2.3678656,1.2521675,-9.306262,-0.0061086523,-0.002443461,-0.0018325958,TREMOR,026369732c41
1776793508040,1901732491590494,-2.3654714,1.2737153,-9.296685,-0.0061086523,-0.0012217305,-0.0018325958,TREMOR,026369732c41
1776793508048,1901732499585870,-2.3702598,1.2545617,-9.315839,-0.0067195175,0.0018325958,-0.002443461,TREMOR,026369732c41
1776793508056,1901732507611706,-2.360683,1.2665327,-9.31105,-0.0067195175,0.002443461,-0.004276057,TREMOR,026369732c41
1776793508064,1901732515607620,-2.3463178,1.2617443,-9.3182335,-0.005497787,0.0036651916,-0.004276057,TREMOR,026369732c41
1776793508072,1901732523602073,-2.3439236,1.2497733,-9.308656,-0.004886922,0.008552114,-0.0018325958,TREMOR,026369732c41
1776793508080,1901732531599295,-2.2984335,1.2401965,-9.32781,-0.0036651916,0.0061086523,-0.0018325958,TREMOR,026369732c41
1776793508088,1901732539592901,-2.2984335,1.2306197,-9.330204,-0.004276057,0.007941248,0.0,TREMOR,026369732c41
1776793508096,1901732547588583,-2.2577322,1.2306197,-9.330204,-0.0030543262,0.0067195175,-0.0012217305,TREMOR,026369732c41
1776793508104,1901732555585498,-2.2457612,1.2018893,-9.325416,-0.0036651916,0.007941248,0.0012217305,TREMOR,026369732c41
1776793508112,1901732563610719,-2.2385786,1.2090719,-9.334992,-0.0036651916,0.007941248,0.0036651916,TREMOR,026369732c41
1776793508120,1901732571608172,-2.2146366,1.1994951,-9.323022,-0.0018325958,0.005497787,0.0012217305,TREMOR,026369732c41
1776793508128,1901732579602086,-2.1978772,1.163582,-9.330204,-0.002443461,0.005497787,0.0030543262,TREMOR,026369732c41
1776793508136,1901732587598384,-2.2002714,1.1851299,-9.334992,-0.0018325958,0.005497787,0.0012217305,TREMOR,026369732c41
1776793508144,1901732595593067,-2.2002714,1.1659763,-9.323022,-0.004886922,0.0067195175,0.0012217305,TREMOR,026369732c41
1776793508152,1901732603589443,-2.1930888,1.1899183,-9.32781,-0.0036651916,0.0061086523,-0.0012217305,TREMOR,026369732c41
1776793508160,1901732611584203,-2.1930888,1.1755531,-9.320627,-0.0036651916,0.0061086523,-0.0012217305,TREMOR,026369732c41
1776793508168,1901732619612732,-2.219425,1.1947067,-9.346964,-0.002443461,0.005497787,-0.004276057,TREMOR,026369732c41
1776793508176,1901732627605645,-2.207454,1.1994951,-9.323022,-0.0036651916,0.005497787,-0.002443461,TREMOR,026369732c41
1776793508184,1901732635602560,-2.2242134,1.1923125,-9.306262,-0.004886922,0.0030543262,-0.0018325958,TREMOR,026369732c41
1776793508192,1901732643598320,-2.2290018,1.2042835,-9.320627,-0.0036651916,0.0018325958,-0.004886922,TREMOR,026369732c41
1776793508200,1901732651595157,-2.2290018,1.2162545,-9.313444,-0.0030543262,0.0012217305,-0.0036651916,TREMOR,026369732c41
1776793508208,1901732659587763,-2.243367,1.2378023,-9.31105,-0.0030543262,-6.1086525E-4,-0.0030543262,TREMOR,026369732c41
1776793508216,1901732667583753,-2.243367,1.2378023,-9.296685,-0.0012217305,-0.002443461,-0.002443461,TREMOR,026369732c41
1776793508224,1901732675609283,-2.2457612,1.2234371,-9.299079,-0.0018325958,-0.0036651916,0.0,TREMOR,026369732c41
1776793508232,1901732683604659,-2.2337902,1.2282255,-9.291897,0.0,-0.0067195175,0.002443461,TREMOR,026369732c41
1776793508240,1901732691600957,-2.2290018,1.2306197,-9.299079,-6.1086525E-4,-0.007941248,0.002443461,TREMOR,026369732c41
1776793508248,1901732699596410,-2.231396,1.2306197,-9.303867,6.1086525E-4,-0.01038471,0.002443461,TREMOR,026369732c41
1776793508256,1901732707593246,-2.2146366,1.2210429,-9.313444,6.1086525E-4,-0.010995574,0.0036651916,TREMOR,026369732c41
1776793508264,1901732715586852,-2.2385786,1.2330139,-9.334992,0.0,-0.009162978,0.004276057,TREMOR,026369732c41
1776793508272,1901732723584997,-2.2337902,1.2138603,-9.32781,-0.0012217305,-0.007941248,0.004886922,TREMOR,026369732c41
1776793508280,1901732731609911,-2.243367,1.2090719,-9.330204,-0.002443461,-0.007330383,0.0061086523,TREMOR,026369732c41
1776793508288,1901732739606210,-2.2290018,1.2114661,-9.332599,-0.002443461,-0.0061086523,0.0061086523,TREMOR,026369732c41
1776793508296,1901732747602123,-2.2505496,1.2066777,-9.320627,-0.0030543262,-0.005497787,0.0036651916,TREMOR,026369732c41
1776793508304,1901732755597268,-2.267309,1.2138603,-9.325416,-0.0030543262,-0.0061086523,0.004886922,TREMOR,026369732c41
1776793508312,1901732763593182,-2.2529438,1.1923125,-9.323022,-0.0030543262,-0.0067195175,0.002443461,TREMOR,026369732c41
1776793508320,1901732771588635,-2.291251,1.1947067,-9.3182335,-0.002443461,-0.0061086523,0.0018325958,TREMOR,026369732c41
1776793508328,1901732779582780,-2.27928,1.2090719,-9.313444,-0.0036651916,-0.0067195175,6.1086525E-4,TREMOR,026369732c41
1776793508336,1901732787609539,-2.2936451,1.2090719,-9.323022,-0.004886922,-0.007330383,0.0018325958,TREMOR,026369732c41
1776793508344,1901732795607068,-2.27928,1.2138603,-9.332599,-0.0036651916,-0.007941248,0.0018325958,TREMOR,026369732c41
1776793508352,1901732803601136,-2.2840683,1.2186487,-9.313444,-0.004276057,-0.005497787,0.0018325958,TREMOR,026369732c41
1776793508360,1901732811595050,-2.2936451,1.2282255,-9.308656,-0.0036651916,-0.004886922,0.0012217305,TREMOR,026369732c41
1776793508368,1901732819592272,-2.2888567,1.2306197,-9.325416,-0.0030543262,-0.004886922,-6.1086525E-4,TREMOR,026369732c41
1776793508376,1901732827587647,-2.2936451,1.2378023,-9.299079,-0.002443461,-0.004276057,0.0012217305,TREMOR,026369732c41
1776793508384,1901732835583253,-2.27928,1.2497733,-9.272743,-0.0018325958,-0.0030543262,0.0012217305,TREMOR,026369732c41
1776793508392,1901732843610013,-2.3056161,1.2617443,-9.308656,-0.0012217305,-6.1086525E-4,0.0012217305,TREMOR,026369732c41
1776793508400,1901732851605774,-2.27928,1.2737153,-9.289502,-0.002443461,-0.002443461,-6.1086525E-4,TREMOR,026369732c41
1776793508408,1901732859600765,-2.2960393,1.271321,-9.28232,-0.0018325958,-6.1086525E-4,-6.1086525E-4,TREMOR,026369732c41
1776793508416,1901732867595524,-2.2864625,1.2689269,-9.303867,-0.0036651916,6.1086525E-4,-0.0018325958,TREMOR,026369732c41
1776793508424,1901732875591207,-2.3080103,1.2689269,-9.294291,-0.0036651916,0.0012217305,-0.0012217305,TREMOR,026369732c41
1776793508432,1901732883587891,-2.3199813,1.2521675,-9.315839,-0.0030543262,0.0030543262,6.1086525E-4,TREMOR,026369732c41
1776793508440,1901732891583189,-2.2936451,1.2401965,-9.301474,-0.004276057,0.004886922,-0.0012217305,TREMOR,026369732c41
1776793508448,1901732899609411,-2.27928,1.2282255,-9.32781,-0.0036651916,0.004276057,-6.1086525E-4,TREMOR,026369732c41
1776793508456,1901732907605016,-2.27928,1.2282255,-9.32781,-0.0036651916,0.0061086523,-6.1086525E-4,TREMOR,026369732c41
1776793508464,1901732915598854,-2.2649148,1.1899183,-9.315839,-0.0030543262,0.0061086523,-0.0012217305,TREMOR,026369732c41
1776793508472,1901732923596075,-2.2529438,1.2042835,-9.313444,-0.002443461,0.004276057,-0.0018325958,TREMOR,026369732c41
1776793508480,1901732931592143,-2.2242134,1.2018893,-9.315839,-0.004886922,0.005497787,-6.1086525E-4,TREMOR,026369732c41
1776793508488,1901732939586827,-2.231396,1.1971009,-9.315839,-0.004276057,0.004886922,0.0,TREMOR,026369732c41
1776793508496,1901732947583202,-2.2098482,1.1875241,-9.32781,-0.005497787,0.004276057,0.0012217305,TREMOR,026369732c41
1776793508504,1901732955609346,-2.2026656,1.1994951,-9.32781,-0.004886922,0.0030543262,-0.0018325958,TREMOR,026369732c41
1776793508512,1901732963604029,-2.2170308,1.1947067,-9.323022,-0.007330383,0.002443461,-6.1086525E-4,TREMOR,026369732c41
1776793508520,1901732971598790,-2.2026656,1.1755531,-9.337387,-0.005497787,0.004276057,0.0018325958,TREMOR,026369732c41
1776793508528,1901732979594858,-2.219425,1.1875241,-9.320627,-0.007330383,0.0036651916,-0.0018325958,TREMOR,026369732c41
1776793508536,1901732987592003,-2.2122424,1.1923125,-9.330204,-0.0061086523,0.0036651916,-6.1086525E-4,TREMOR,026369732c41
1776793508544,1901732995585839,-2.2218192,1.1994951,-9.332599,-0.0067195175,0.004276057,6.1086525E-4,TREMOR,026369732c41
1776793508552,1901733003582522,-2.2122424,1.2066777,-9.337387,-0.0061086523,0.0030543262,-0.0012217305,TREMOR,026369732c41
1776793508560,1901733011610513,-2.2146366,1.2306197,-9.32781,-0.004276057,0.0036651916,-0.0018325958,TREMOR,026369732c41
1776793508568,1901733019604273,-2.2242134,1.2306197,-9.323022,-0.005497787,0.0036651916,-0.002443461,TREMOR,026369732c41
1776793508576,1901733027599341,-2.2409728,1.2234371,-9.32781,-0.0036651916,0.0030543262,-0.0036651916,TREMOR,026369732c41
1776793508584,1901733035596024,-2.2457612,1.2330139,-9.315839,-0.0036651916,0.0018325958,-0.0030543262,TREMOR,026369732c41
1776793508592,1901733043591938,-2.2529438,1.2401965,-9.315839,-0.0036651916,0.0,-0.002443461,TREMOR,026369732c41
1776793508600,1901733051588313,-2.2577322,1.2401965,-9.306262,-0.002443461,0.0,-0.0036651916,TREMOR,026369732c41
1776793508608,1901733059613458,-2.2529438,1.2401965,-9.31105,-0.0018325958,-0.002443461,-0.0012217305,TREMOR,026369732c41
1776793508616,1901733067608911,-2.2529438,1.2378023,-9.315839,0.0,-0.004886922,0.0,TREMOR,026369732c41
1776793508624,1901733075602132,-2.2625206,1.2449849,-9.325416,0.0,-0.007330383,-6.1086525E-4,TREMOR,026369732c41
1776793508632,1901733083598738,-2.2529438,1.2401965,-9.313444,0.0,-0.009162978,0.0030543262,TREMOR,026369732c41
1776793508640,1901733091594729,-2.2361844,1.2258313,-9.32781,0.0,-0.01038471,0.0036651916,TREMOR,026369732c41
1776793508648,1901733099590720,-2.2337902,1.2210429,-9.31105,-6.1086525E-4,-0.008552114,0.0036651916,TREMOR,026369732c41
1776793508656,1901733107585711,-2.243367,1.1994951,-9.303867,6.1086525E-4,-0.009162978,0.0036651916,TREMOR,026369732c41
1776793508664,1901733115611009,-2.2242134,1.2138603,-9.313444,-0.0012217305,-0.010995574,0.002443461,TREMOR,026369732c41
1776793508672,1901733123607846,-2.2481554,1.2114661,-9.313444,0.0,-0.008552114,0.005497787,TREMOR,026369732c41
1776793508680,1901733131603914,-2.2361844,1.2018893,-9.3182335,-0.0012217305,-0.008552114,0.0036651916,TREMOR,026369732c41
1776793508688,1901733139599520,-2.2505496,1.2114661,-9.3182335,-0.0018325958,-0.0061086523,0.004276057,TREMOR,026369732c41
1776793508696,1901733147594588,-2.255338,1.2042835,-9.3182335,-0.0030543262,-0.0061086523,0.002443461,TREMOR,026369732c41
1776793508704,1901733155588501,-2.2649148,1.1994951,-9.3182335,-0.002443461,-0.004276057,0.0030543262,TREMOR,026369732c41
1776793508712,1901733163587262,-2.267309,1.2186487,-9.3182335,-0.004276057,-0.004276057,0.0012217305,TREMOR,026369732c41
1776793508720,1901733171612714,-2.2744915,1.2258313,-9.32781,-0.0030543262,-0.004276057,6.1086525E-4,TREMOR,026369732c41
1776793508728,1901733179607244,-2.291251,1.2258313,-9.31105,-0.0030543262,-0.004886922,-6.1086525E-4,TREMOR,026369732c41
1776793508736,1901733187603773,-2.291251,1.2354081,-9.323022,-0.004886922,-0.002443461,-0.0012217305,TREMOR,026369732c41
1776793508744,1901733195600763,-2.3080103,1.2425907,-9.315839,-0.0036651916,-0.0036651916,-6.1086525E-4,TREMOR,026369732c41
1776793508752,1901733203595139,-2.2984335,1.2354081,-9.31105,-0.0030543262,-0.002443461,-0.0018325958,TREMOR,026369732c41
1776793508760,1901733211590207,-2.303222,1.2449849,-9.306262,-0.0030543262,-0.0012217305,-0.0018325958,TREMOR,026369732c41
1776793508768,1901733219585351,-2.3175871,1.2401965,-9.320627,-0.004276057,0.0,-0.002443461,TREMOR,026369732c41
1776793508776,1901733227612343,-2.3127987,1.2545617,-9.303867,-0.0030543262,6.1086525E-4,-0.0018325958,TREMOR,026369732c41
1776793508784,1901733235608025,-2.3080103,1.2330139,-9.313444,-0.002443461,0.002443461,-0.004276057,TREMOR,026369732c41
1776793508792,1901733243604400,-2.2960393,1.2449849,-9.308656,-0.0030543262,-6.1086525E-4,-0.0036651916,TREMOR,026369732c41
1776793508800,1901733251598238,-2.303222,1.2282255,-9.315839,-0.0036651916,0.0030543262,0.0,TREMOR,026369732c41
1776793508808,1901733259595152,-2.2960393,1.2521675,-9.32781,-0.0036651916,0.002443461,-0.0036651916,TREMOR,026369732c41
1776793508816,1901733267589604,-2.2864625,1.2234371,-9.332599,-0.002443461,0.0012217305,-0.002443461,TREMOR,026369732c41
1776793508824,1901733275584979,-2.2936451,1.2186487,-9.330204,-0.0030543262,0.0036651916,-0.0030543262,TREMOR,026369732c41
1776793508832,1901733283611662,-2.2649148,1.2138603,-9.325416,-0.002443461,0.0036651916,-6.1086525E-4,TREMOR,026369732c41
1776793508840,1901733291606730,-2.2457612,1.1899183,-9.346964,-0.002443461,0.0018325958,-0.0012217305,TREMOR,026369732c41
1776793508848,1901733299604337,-2.2290018,1.1851299,-9.315839,-0.0036651916,0.004276057,-0.0012217305,TREMOR,026369732c41
1776793508856,1901733307596943,-2.231396,1.1731589,-9.315839,-0.002443461,0.004276057,-0.0018325958,TREMOR,026369732c41
1776793508864,1901733315596010,-2.2146366,1.1659763,-9.325416,-0.0030543262,0.0030543262,-6.1086525E-4,TREMOR,026369732c41
1776793508872,1901733323588232,-2.2242134,1.1947067,-9.323022,-0.002443461,0.004886922,0.0,TREMOR,026369732c41
1776793508880,1901733331585530,-2.207454,1.1947067,-9.330204,-0.0067195175,0.005497787,-6.1086525E-4,TREMOR,026369732c41
1776793508888,1901733339610752,-2.2122424,1.1947067,-9.334992,-0.004886922,0.004886922,-6.1086525E-4,TREMOR,026369732c41
1776793508896,1901733347606359,-2.2122424,1.1994951,-9.354146,-0.0067195175,0.004886922,-6.1086525E-4,TREMOR,026369732c41
1776793508904,1901733355601503,-2.2361844,1.2066777,-9.344569,-0.007330383,0.004886922,0.0,TREMOR,026369732c41
1776793508912,1901733363598109,-2.2290018,1.2114661,-9.361329,-0.007330383,0.0067195175,-6.1086525E-4,TREMOR,026369732c41
1776793508920,1901733371592792,-2.2409728,1.2234371,-9.330204,-0.004886922,0.004276057,-0.0018325958,TREMOR,026369732c41
1776793508928,1901733379589091,-2.231396,1.2282255,-9.323022,-0.005497787,0.0030543262,0.0012217305,TREMOR,026369732c41
1776793508936,1901733387585082,-2.2337902,1.2234371,-9.334992,-0.0036651916,0.0030543262,-0.0018325958,TREMOR,026369732c41
1776793508944,1901733395610687,-2.2481554,1.2473791,-9.323022,-0.002443461,-6.1086525E-4,0.0012217305,TREMOR,026369732c41
1776793508952,1901733403606294,-2.2457612,1.2306197,-9.325416,-0.0036651916,-0.0012217305,-6.1086525E-4,TREMOR,026369732c41
1776793508960,1901733411602362,-2.2457612,1.2401965,-9.315839,-0.0018325958,-0.0012217305,-0.0036651916,TREMOR,026369732c41
1776793508968,1901733419595584,-2.2457612,1.2330139,-9.320627,-0.0018325958,-0.0036651916,-0.0012217305,TREMOR,026369732c41
1776793508976,1901733427592190,-2.2601264,1.2306197,-9.313444,-0.0018325958,-0.005497787,-0.002443461,TREMOR,026369732c41
1776793508984,1901733435589027,-2.2649148,1.2401965,-9.299079,-0.0018325958,-0.005497787,-0.0018325958,TREMOR,026369732c41
1776793508992,1901733443584402,-2.2697031,1.2330139,-9.323022,-0.002443461,-0.0067195175,0.0,TREMOR,026369732c41
1776793509000,1901733451611854,-2.2768857,1.2258313,-9.323022,-0.002443461,-0.0061086523,6.1086525E-4,TREMOR,026369732c41
1776793509008,1901733459605999,-2.2649148,1.2401965,-9.3182335,-0.0018325958,-0.005497787,-0.0012217305,TREMOR,026369732c41
1776793509016,1901733467601375,-2.2457612,1.2258313,-9.325416,-0.0018325958,-0.005497787,6.1086525E-4,TREMOR,026369732c41
1776793509024,1901733475597058,-2.2601264,1.2138603,-9.31105,-0.002443461,-0.0036651916,6.1086525E-4,TREMOR,026369732c41
1776793509032,1901733483592740,-2.2577322,1.2210429,-9.31105,-0.0018325958,-0.0036651916,0.0036651916,TREMOR,026369732c41
1776793509040,1901733491588731,-2.2337902,1.2066777,-9.32781,-0.002443461,-0.0036651916,0.0036651916,TREMOR,026369732c41
1776793509048,1901733499584953,-2.243367,1.2066777,-9.344569,-0.0018325958,-0.0036651916,0.0012217305,TREMOR,026369732c41
1776793509056,1901733507608713,-2.2361844,1.1803415,-9.313444,-0.0018325958,-0.002443461,0.0030543262,TREMOR,026369732c41
1776793509064,1901733515605628,-2.2170308,1.1971009,-9.334992,-0.0030543262,-0.002443461,0.0036651916,TREMOR,026369732c41
1776793509072,1901733523603464,-2.2505496,1.1875241,-9.3421755,-0.004276057,-0.0036651916,0.004276057,TREMOR,026369732c41
1776793509080,1901733531596686,-2.2361844,1.1994951,-9.32781,-0.002443461,-0.0030543262,6.1086525E-4,TREMOR,026369732c41
1776793509088,1901733539593600,-2.243367,1.2066777,-9.334992,-0.0030543262,-0.0030543262,6.1086525E-4,TREMOR,026369732c41
1776793509096,1901733547588591,-2.243367,1.1994951,-9.346964,-0.0030543262,-0.005497787,0.0012217305,TREMOR,026369732c41
1776793509104,1901733555582197,-2.2649148,1.2090719,-9.337387,-0.0036651916,-0.007330383,0.0012217305,TREMOR,026369732c41
1776793509112,1901733563609187,-2.2649148,1.2114661,-9.32781,-0.0030543262,-0.005497787,0.0012217305,TREMOR,026369732c41
1776793509120,1901733571604640,-2.2768857,1.2090719,-9.330204,-0.0030543262,-0.005497787,6.1086525E-4,TREMOR,026369732c41
1776793509128,1901733579601169,-2.2744915,1.2186487,-9.325416,0.0,-0.004886922,-6.1086525E-4,TREMOR,026369732c41
1776793509136,1901733587596929,-2.2936451,1.2282255,-9.308656,-6.1086525E-4,-0.0036651916,-0.0012217305,TREMOR,026369732c41
1776793509144,1901733595591305,-2.3008277,1.2330139,-9.325416,-0.0012217305,-0.0030543262,-0.002443461,TREMOR,026369732c41
1776793509152,1901733603587680,-2.2936451,1.2593501,-9.325416,-0.0012217305,-0.0030543262,-0.002443461,TREMOR,026369732c41
1776793509160,1901733611584825,-2.3175871,1.2737153,-9.31105,-0.0018325958,-0.0012217305,-0.002443461,TREMOR,026369732c41
1776793509168,1901733619608277,-2.3127987,1.271321,-9.299079,-0.002443461,-6.1086525E-4,-0.0030543262,TREMOR,026369732c41
1776793509176,1901733627606114,-2.3080103,1.2545617,-9.31105,-0.002443461,0.0030543262,-0.0036651916,TREMOR,026369732c41
1776793509184,1901733635600874,-2.3104045,1.2569559,-9.3182335,-0.0030543262,0.0036651916,-0.0036651916,TREMOR,026369732c41
1776793509192,1901733643597711,-2.315193,1.2449849,-9.325416,-0.0018325958,0.004886922,-0.0030543262,TREMOR,026369732c41
1776793509200,1901733651591856,-2.303222,1.2354081,-9.320627,-0.0012217305,0.0067195175,-0.0018325958,TREMOR,026369732c41
1776793509208,1901733659587923,-2.2816741,1.2449849,-9.308656,-6.1086525E-4,0.008552114,-6.1086525E-4,TREMOR,026369732c41
1776793509216,1901733667583530,-2.2697031,1.2234371,-9.323022,-6.1086525E-4,0.007941248,-0.0030543262,TREMOR,026369732c41
1776793509224,1901733675607521,-2.2649148,1.2090719,-9.332599,6.1086525E-4,0.009162978,-6.1086525E-4,TREMOR,026369732c41
1776793509232,1901733683606588,-2.243367,1.2138603,-9.315839,0.0012217305,0.004886922,0.0012217305,TREMOR,026369732c41
1776793509240,1901733691600194,-2.2266076,1.1947067,-9.323022,-6.1086525E-4,0.0067195175,0.0,TREMOR,026369732c41
1776793509248,1901733699596493,-2.2122424,1.1755531,-9.349358,-6.1086525E-4,0.005497787,6.1086525E-4,TREMOR,026369732c41
1776793509256,1901733707590638,-2.2098482,1.1875241,-9.3421755,0.0,0.004276057,6.1086525E-4,TREMOR,026369732c41
1776793509264,1901733715588167,-2.1859062,1.1755531,-9.3421755,0.0,0.0036651916,6.1086525E-4,TREMOR,026369732c41
1776793509272,1901733723582619,-2.1859062,1.1851299,-9.346964,-0.0018325958,0.0012217305,-0.002443461,TREMOR,026369732c41
1776793509280,1901733731609994,-2.2122424,1.1923125,-9.332599,-6.1086525E-4,0.0012217305,-0.002443461,TREMOR,026369732c41
1776793509288,1901733739602909,-2.207454,1.1994951,-9.330204,-0.0018325958,0.0018325958,-0.0018325958,TREMOR,026369732c41
1776793509296,1901733747600669,-2.2170308,1.2306197,-9.330204,-0.0018325958,0.0018325958,-0.0018325958,TREMOR,026369732c41
1776793509304,1901733755594275,-2.2409728,1.2042835,-9.337387,-6.1086525E-4,0.0030543262,-0.0030543262,TREMOR,026369732c41
1776793509312,1901733763590881,-2.2385786,1.2138603,-9.320627,-6.1086525E-4,0.0,-0.005497787,TREMOR,026369732c41
1776793509320,1901733771587102,-2.255338,1.2234371,-9.325416,-6.1086525E-4,-6.1086525E-4,-0.004886922,TREMOR,026369732c41
1776793509328,1901733779583786,-2.2649148,1.2449849,-9.32781,-6.1086525E-4,-6.1086525E-4,-0.0061086523,TREMOR,026369732c41
1776793509336,1901733787609315,-2.267309,1.2497733,-9.313444,6.1086525E-4,-0.0030543262,-0.004886922,TREMOR,026369732c41
1776793509344,1901733795604306,-2.2864625,1.2665327,-9.3182335,0.0018325958,-0.0036651916,-0.004276057,TREMOR,026369732c41
1776793509352,1901733803601296,-2.2960393,1.2354081,-9.3182335,0.002443461,-0.004276057,-0.0012217305,TREMOR,026369732c41
1776793509360,1901733811595364,-2.291251,1.2425907,-9.296685,0.0030543262,-0.004276057,-0.0018325958,TREMOR,026369732c41
1776793509368,1901733819591048,-2.2888567,1.2306197,-9.313444,0.002443461,-0.005497787,-0.002443461,TREMOR,026369732c41
1776793509376,1901733827585885,-2.291251,1.2258313,-9.323022,0.002443461,-0.007330383,-0.002443461,TREMOR,026369732c41
1776793509384,1901733835581876,-2.2816741,1.2354081,-9.306262,0.002443461,-0.005497787,0.002443461,TREMOR,026369732c41
1776793509392,1901733843608943,-2.2888567,1.2330139,-9.32781,0.0030543262,-0.0061086523,6.1086525E-4,TREMOR,026369732c41
1776793509400,1901733851603934,-2.2601264,1.2138603,-9.315839,0.0030543262,-0.004276057,0.0012217305,TREMOR,026369732c41
1776793509408,1901733859599694,-2.2840683,1.1994951,-9.334992,0.0012217305,-0.0036651916,0.0030543262,TREMOR,026369732c41
1776793509416,1901733867595300,-2.2577322,1.1923125,-9.320627,0.0012217305,-0.002443461,0.0030543262,TREMOR,026369732c41
1776793509424,1901733875589522,-2.2577322,1.1994951,-9.320627,-6.1086525E-4,-0.0018325958,0.0012217305,TREMOR,026369732c41
1776793509432,1901733883586359,-2.2601264,1.1923125,-9.323022,0.0,0.0012217305,0.0,TREMOR,026369732c41
1776793509440,1901733891583272,-2.2577322,1.1923125,-9.330204,-0.002443461,0.002443461,0.0018325958,TREMOR,026369732c41
1776793509448,1901733899607956,-2.2457612,1.2018893,-9.32781,-0.0012217305,0.0030543262,0.0012217305,TREMOR,026369732c41
1776793509456,1901733907603870,-2.2481554,1.1947067,-9.332599,-0.0018325958,0.0036651916,0.0012217305,TREMOR,026369732c41
1776793509464,1901733915599322,-2.2409728,1.1875241,-9.323022,-0.0012217305,0.0030543262,0.002443461,TREMOR,026369732c41
1776793509472,1901733923595236,-2.2529438,1.1899183,-9.337387,0.0,0.0018325958,6.1086525E-4,TREMOR,026369732c41
1776793509480,1901733931591226,-2.2361844,1.1971009,-9.320627,0.0,0.0,0.002443461,TREMOR,026369732c41
1776793509488,1901733939586679,-2.2505496,1.1899183,-9.332599,0.0012217305,-0.002443461,0.002443461,TREMOR,026369732c41
1776793509496,1901733947581978,-2.2577322,1.2018893,-9.315839,6.1086525E-4,-0.0036651916,0.0018325958,TREMOR,026369732c41
1776793509504,1901733955606046,-2.2409728,1.2114661,-9.313444,0.0012217305,-0.0061086523,0.0036651916,TREMOR,026369732c41
1776793509512,1901733963603498,-2.2385786,1.2210429,-9.320627,0.0012217305,-0.005497787,0.0036651916,TREMOR,026369732c41
1776793509520,1901733971598258,-2.2481554,1.2210429,-9.325416,0.0012217305,-0.005497787,0.0030543262,TREMOR,026369732c41
1776793509528,1901733979594864,-2.2601264,1.2330139,-9.306262,0.0012217305,-0.007330383,0.0030543262,TREMOR,026369732c41
1776793509536,1901733987589393,-2.2744915,1.2186487,-9.315839,0.0,-0.005497787,0.002443461,TREMOR,026369732c41
1776793509544,1901733995587769,-2.2840683,1.2425907,-9.308656,-0.0012217305,-0.0036651916,0.002443461,TREMOR,026369732c41
1776793509552,1901734003611760,-2.2984335,1.2378023,-9.313444,0.0012217305,-0.0030543262,6.1086525E-4,TREMOR,026369732c41
1776793509560,1901734011608058,-2.27928,1.2473791,-9.306262,0.0,-0.0030543262,-0.0036651916,TREMOR,026369732c41
1776793509568,1901734019601895,-2.315193,1.2330139,-9.306262,6.1086525E-4,-0.0018325958,0.0,TREMOR,026369732c41
1776793509576,1901734027598886,-2.3223755,1.2401965,-9.306262,0.0012217305,-0.0012217305,-0.0036651916,TREMOR,026369732c41
1776793509584,1901734035593339,-2.315193,1.2258313,-9.315839,6.1086525E-4,-0.0018325958,-6.1086525E-4,TREMOR,026369732c41
1776793509592,1901734043589637,-2.3343468,1.2378023,-9.320627,0.0018325958,-6.1086525E-4,-0.0036651916,TREMOR,026369732c41
1776793509600,1901734051584627,-2.303222,1.2449849,-9.334992,0.0012217305,-0.0018325958,6.1086525E-4,TREMOR,026369732c41
1776793509608,1901734059581003,-2.3223755,1.2401965,-9.313444,0.0012217305,-6.1086525E-4,-0.0012217305,TREMOR,026369732c41
1776793509616,1901734067606225,-2.2984335,1.2354081,-9.313444,-6.1086525E-4,6.1086525E-4,0.0,TREMOR,026369732c41
1776793509624,1901734075604370,-2.2984335,1.2186487,-9.306262,-0.0018325958,0.0012217305,0.0018325958,TREMOR,026369732c41
1776793509632,1901734083596976,-2.291251,1.2018893,-9.315839,6.1086525E-4,6.1086525E-4,0.0030543262,TREMOR,026369732c41
1776793509640,1901734091593889,-2.27928,1.2018893,-9.313444,0.0,0.004276057,0.005497787,TREMOR,026369732c41
1776793509648,1901734099589572,-2.2481554,1.1971009,-9.303867,0.0,0.0067195175,0.0030543262,TREMOR,026369732c41
1776793509656,1901734107586102,-2.243367,1.1875241,-9.325416,0.0,0.004886922,0.0030543262,TREMOR,026369732c41
1776793509664,1901734115580939,-2.2242134,1.1899183,-9.32781,-0.0018325958,0.007330383,0.0012217305,TREMOR,026369732c41
1776793509672,1901734123605545,-2.231396,1.2066777,-9.3182335,-0.002443461,0.008552114,0.0030543262,TREMOR,026369732c41
1776793509680,1901734131601843,-2.2266076,1.1923125,-9.3421755,-0.002443461,0.007941248,0.0012217305,TREMOR,026369732c41
1776793509688,1901734139598065,-2.2170308,1.2090719,-9.330204,-0.0036651916,0.007330383,0.0018325958,TREMOR,026369732c41
1776793509696,1901734147593441,-2.2266076,1.2114661,-9.344569,-0.0018325958,0.0067195175,6.1086525E-4,TREMOR,026369732c41
1776793509704,1901734155587355,-2.2505496,1.2090719,-9.337387,-0.002443461,0.0067195175,-6.1086525E-4,TREMOR,026369732c41
1776793509712,1901734163583884,-2.2361844,1.2138603,-9.32781,-6.1086525E-4,0.0030543262,-0.0012217305,TREMOR,026369732c41
1776793509720,1901734171610643,-2.2385786,1.2210429,-9.320627,0.0018325958,0.0018325958,-0.0018325958,TREMOR,026369732c41
1776793509728,1901734179605711,-2.2361844,1.2090719,-9.320627,6.1086525E-4,0.0,-0.002443461,TREMOR,026369732c41
1776793509736,1901734187600241,-2.2457612,1.2162545,-9.32781,0.0012217305,-0.0012217305,-0.0012217305,TREMOR,026369732c41
1776793509744,1901734195598616,-2.2888567,1.2354081,-9.303867,0.0030543262,-0.0030543262,-0.0012217305,TREMOR,026369732c41
1776793509752,1901734203592223,-2.2720973,1.2378023,-9.284714,0.0030543262,-0.005497787,0.0,TREMOR,026369732c41
1776793509760,1901734211589674,-2.2864625,1.2306197,-9.315839,0.0030543262,-0.004276057,-0.0012217305,TREMOR,026369732c41
1776793509768,1901734219585973,-2.2864625,1.2473791,-9.303867,0.0036651916,-0.002443461,-0.0012217305,TREMOR,026369732c41
1776793509776,1901734227610349,-2.2960393,1.2521675,-9.308656,0.002443461,-0.0036651916,-6.1086525E-4,TREMOR,026369732c41
1776793509784,1901734235606955,-2.3056161,1.2401965,-9.301474,0.0012217305,-0.0018325958,-0.0018325958,TREMOR,026369732c41
1776793509792,1901734243602023,-2.3175871,1.2425907,-9.294291,0.0030543262,0.0,-0.002443461,TREMOR,026369732c41
1776793509800,1901734251597628,-2.3080103,1.2449849,-9.303867,0.0012217305,0.0018325958,-0.0018325958,TREMOR,026369732c41
1776793509808,1901734259593081,-2.315193,1.2473791,-9.301474,0.0012217305,0.0036651916,-6.1086525E-4,TREMOR,026369732c41
1776793509816,1901734267588149,-2.3199813,1.2210429,-9.306262,0.0,0.005497787,-0.0012217305,TREMOR,026369732c41
1776793509824,1901734275582909,-2.291251,1.2162545,-9.320627,6.1086525E-4,0.004886922,-6.1086525E-4,TREMOR,026369732c41
1776793509832,1901734283610823,-2.2744915,1.2114661,-9.308656,0.0,0.005497787,-0.0012217305,TREMOR,026369732c41
1776793509840,1901734291607429,-2.2936451,1.2042835,-9.325416,6.1086525E-4,0.007941248,-6.1086525E-4,TREMOR,026369732c41
1776793509848,1901734299600035,-2.2601264,1.2042835,-9.325416,0.0,0.007941248,0.0012217305,TREMOR,026369732c41
1776793509856,1901734307596642,-2.2409728,1.2042835,-9.320627,0.0,0.01038471,0.0,TREMOR,026369732c41
1776793509864,1901734315591479,-2.2601264,1.2066777,-9.32781,-6.1086525E-4,0.009162978,0.0018325958,TREMOR,026369732c41
1776793509872,1901734323588393,-2.2361844,1.1971009,-9.323022,-6.1086525E-4,0.01160644,6.1086525E-4,TREMOR,026369732c41
1776793509880,1901734331583461,-2.2218192,1.2090719,-9.323022,0.0,0.01038471,0.0,TREMOR,026369732c41
1776793509888,1901734339609605,-2.2242134,1.1875241,-9.334992,-0.0018325958,0.008552114,0.0012217305,TREMOR,026369732c41
1776793509896,1901734347604365,-2.207454,1.1851299,-9.334992,-6.1086525E-4,0.007330383,-6.1086525E-4,TREMOR,026369732c41
1776793509904,1901734355601587,-2.2242134,1.1923125,-9.320627,0.0,0.007941248,6.1086525E-4,TREMOR,026369732c41
1776793509912,1901734363596962,-2.2170308,1.2042835,-9.349358,-0.0012217305,0.0030543262,-6.1086525E-4,TREMOR,026369732c41
1776793509920,1901734371592338,-2.2218192,1.2162545,-9.332599,0.0,0.002443461,0.0012217305,TREMOR,026369732c41
1776793509928,1901734379587713,-2.1978772,1.1994951,-9.344569,6.1086525E-4,-6.1086525E-4,0.0,TREMOR,026369732c41
1776793509936,1901734387584627,-2.2266076,1.2186487,-9.3182335,-6.1086525E-4,0.0,-0.0018325958,TREMOR,026369732c41
1776793509944,1901734395610387,-2.2242134,1.2258313,-9.315839,0.0012217305,-0.0030543262,0.0,TREMOR,026369732c41
1776793509952,1901734403605763,-2.231396,1.2330139,-9.306262,0.0012217305,-0.0030543262,-0.0030543262,TREMOR,026369732c41
1776793509960,1901734411601215,-2.2481554,1.2138603,-9.301474,0.0012217305,-0.004886922,-0.0012217305,TREMOR,026369732c41
1776793509968,1901734419596821,-2.2601264,1.2258313,-9.294291,0.0018325958,-0.004886922,-0.0012217305,TREMOR,026369732c41
1776793509976,1901734427592273,-2.2697031,1.2306197,-9.306262,0.002443461,-0.0061086523,-0.0012217305,TREMOR,026369732c41
1776793509984,1901734435587264,-2.2529438,1.2354081,-9.301474,0.0012217305,-0.0067195175,-6.1086525E-4,TREMOR,026369732c41
1776793509992,1901734443583870,-2.2840683,1.2330139,-9.291897,0.0012217305,-0.005497787,0.0018325958,TREMOR,026369732c41
1776793510000,1901734451609092,-2.2601264,1.2258313,-9.313444,0.0018325958,-0.0030543262,0.0012217305,TREMOR,026369732c41
1776793510008,1901734459605390,-2.2768857,1.2258313,-9.299079,0.002443461,-0.005497787,0.002443461,TREMOR,026369732c41
1776793510016,1901734467599612,-2.2840683,1.2018893,-9.313444,0.0030543262,-0.0036651916,0.0018325958,TREMOR,026369732c41
1776793510024,1901734475594910,-2.2840683,1.2138603,-9.313444,0.002443461,-0.002443461,0.0030543262,TREMOR,026369732c41
1776793510032,1901734483591825,-2.2840683,1.1994951,-9.31105,0.0012217305,-0.0012217305,0.0030543262,TREMOR,026369732c41
1776793510040,1901734491587585,-2.2840683,1.2114661,-9.306262,0.0018325958,0.0012217305,0.0030543262,TREMOR,026369732c41
1776793510048,1901734499585344,-2.2768857,1.2114661,-9.31105,6.1086525E-4,-0.0018325958,0.004886922,TREMOR,026369732c41
1776793510056,1901734507608797,-2.2697031,1.2042835,-9.299079,0.0,-6.1086525E-4,0.0036651916,TREMOR,026369732c41
1776793510064,1901734515603172,-2.27928,1.2066777,-9.31105,6.1086525E-4,-0.0012217305,0.0018325958,TREMOR,026369732c41
1776793510072,1901734523600702,-2.2625206,1.2090719,-9.330204,-6.1086525E-4,0.0,0.0012217305,TREMOR,026369732c41
1776793510080,1901734531595154,-2.27928,1.2162545,-9.306262,-6.1086525E-4,-6.1086525E-4,0.0036651916,TREMOR,026369732c41
1776793510088,1901734539591221,-2.27928,1.2162545,-9.3182335,-0.002443461,6.1086525E-4,0.0012217305,TREMOR,026369732c41
1776793510096,1901734547587443,-2.291251,1.2042835,-9.325416,-0.002443461,0.0018325958,6.1086525E-4,TREMOR,026369732c41
1776793510104,1901734555581049,-2.27928,1.2114661,-9.296685,-0.0012217305,0.002443461,-0.0012217305,TREMOR,026369732c41
1776793510112,1901734563609271,-2.2840683,1.2186487,-9.308656,-0.002443461,0.0030543262,-0.0030543262,TREMOR,026369732c41
1776793510120,1901734571605647,-2.2864625,1.2258313,-9.299079,-0.002443461,0.0036651916,-0.0018325958,TREMOR,026369732c41
1776793510128,1901734579599791,-2.2888567,1.2306197,-9.31105,-0.0030543262,0.0030543262,-0.004276057,TREMOR,026369732c41
1776793510136,1901734587596397,-2.2840683,1.2378023,-9.308656,-0.002443461,0.005497787,-0.0036651916,TREMOR,026369732c41
1776793510144,1901734595589619,-2.291251,1.2545617,-9.31105,-0.0012217305,0.004886922,-0.0018325958,TREMOR,026369732c41
1776793510152,1901734603587148,-2.2984335,1.2258313,-9.325416,-0.0030543262,0.008552114,-0.002443461,TREMOR,026369732c41
1776793510160,1901734611580909,-2.291251,1.2186487,-9.3182335,-0.002443461,0.007330383,-0.002443461,TREMOR,026369732c41
1776793510168,1901734619608283,-2.2936451,1.2258313,-9.313444,-0.0018325958,0.007941248,-0.004276057,TREMOR,026369732c41
1776793510176,1901734627603659,-2.2840683,1.2282255,-9.320627,-0.002443461,0.007941248,-0.002443461,TREMOR,026369732c41
1776793510184,1901734635600650,-2.291251,1.2162545,-9.296685,-0.0018325958,0.007941248,-0.0018325958,TREMOR,026369732c41
1776793510192,1901734643596949,-2.2720973,1.2042835,-9.3182335,-6.1086525E-4,0.007941248,-0.0036651916,TREMOR,026369732c41
1776793510200,1901734651590786,-2.2601264,1.2210429,-9.3421755,0.0,0.0061086523,-6.1086525E-4,TREMOR,026369732c41
1776793510208,1901734659585160,-2.2577322,1.2042835,-9.349358,-6.1086525E-4,0.007330383,0.0,TREMOR,026369732c41
1776793510216,1901734667580921,-2.2649148,1.1994951,-9.323022,-0.0012217305,0.007941248,-0.0012217305,TREMOR,026369732c41
1776793510224,1901734675608604,-2.2337902,1.1875241,-9.325416,-0.0018325958,0.0061086523,-6.1086525E-4,TREMOR,026369732c41
1776793510232,1901734683603595,-2.2337902,1.1923125,-9.3182335,-0.002443461,0.007330383,-0.0012217305,TREMOR,026369732c41
1776793510240,1901734691600201,-2.2290018,1.2018893,-9.3182335,-0.0018325958,0.0067195175,-0.0036651916,TREMOR,026369732c41
1776793510248,1901734699593807,-2.2146366,1.2042835,-9.3182335,-0.002443461,0.004276057,-0.0012217305,TREMOR,026369732c41
1776793510256,1901734707590106,-2.207454,1.1994951,-9.323022,-0.0012217305,0.004276057,-0.0030543262,TREMOR,026369732c41
1776793510264,1901734715584481,-2.2146366,1.2018893,-9.323022,-0.0018325958,0.004276057,-6.1086525E-4,TREMOR,026369732c41
1776793510272,1901734723580857,-2.2242134,1.2042835,-9.325416,-0.0030543262,0.005497787,-0.0036651916,TREMOR,026369732c41
1776793510280,1901734731607232,-2.2170308,1.2234371,-9.315839,-0.002443461,0.005497787,-6.1086525E-4,TREMOR,026369732c41
1776793510288,1901734739603838,-2.207454,1.2210429,-9.313444,-0.002443461,0.0036651916,-0.002443461,TREMOR,026369732c41
1776793510296,1901734747598983,-2.2290018,1.2234371,-9.334992,-0.0012217305,0.0030543262,-0.0012217305,TREMOR,026369732c41
1776793510304,1901734755593435,-2.2361844,1.2090719,-9.32781,6.1086525E-4,0.002443461,0.0012217305,TREMOR,026369732c41
1776793510312,1901734763590042,-2.231396,1.2066777,-9.330204,6.1086525E-4,-6.1086525E-4,0.0018325958,TREMOR,026369732c41
1776793510320,1901734771585725,-2.2242134,1.2066777,-9.32781,0.0,-0.0030543262,0.0012217305,TREMOR,026369732c41
1776793510328,1901734779582024,-2.2337902,1.2066777,-9.315839,0.0018325958,-0.0036651916,0.002443461,TREMOR,026369732c41
1776793510336,1901734787607783,-2.2385786,1.2138603,-9.303867,0.0012217305,-0.005497787,0.0030543262,TREMOR,026369732c41
1776793510344,1901734795601620,-2.2529438,1.2090719,-9.325416,0.0030543262,-0.007941248,0.0036651916,TREMOR,026369732c41
1776793510352,1901734803597380,-2.2481554,1.2282255,-9.323022,0.0030543262,-0.009162978,0.0018325958,TREMOR,026369732c41
1776793510360,1901734811594525,-2.2385786,1.2114661,-9.303867,0.002443461,-0.009773844,0.0018325958,TREMOR,026369732c41
1776793510368,1901734819589593,-2.2577322,1.2258313,-9.308656,0.0030543262,-0.009162978,0.0012217305,TREMOR,026369732c41
1776793510376,1901734827585660,-2.2888567,1.2234371,-9.296685,6.1086525E-4,-0.008552114,0.0018325958,TREMOR,026369732c41
1776793510384,1901734835581267,-2.27928,1.2162545,-9.296685,0.002443461,-0.008552114,0.0,TREMOR,026369732c41
1776793510392,1901734843606796,-2.2960393,1.2306197,-9.299079,0.0,-0.005497787,6.1086525E-4,TREMOR,026369732c41
1776793510400,1901734851602556,-2.303222,1.2258313,-9.323022,0.0,-0.005497787,6.1086525E-4,TREMOR,026369732c41
1776793510408,1901734859599086,-2.303222,1.2282255,-9.303867,-6.1086525E-4,-0.0030543262,-6.1086525E-4,TREMOR,026369732c41
1776793510416,1901734867592383,-2.3008277,1.2378023,-9.306262,-0.002443461,-6.1086525E-4,-0.0030543262,TREMOR,026369732c41
1776793510424,1901734875591375,-2.3104045,1.2378023,-9.313444,-0.0018325958,0.002443461,-0.0036651916,TREMOR,026369732c41
1776793510432,1901734883583981,-2.3080103,1.2401965,-9.306262,-0.0036651916,0.005497787,-0.0030543262,TREMOR,026369732c41
1776793510440,1901734891581280,-2.327164,1.2449849,-9.315839,-0.0018325958,0.007941248,-0.0036651916,TREMOR,026369732c41
1776793510448,1901734899606424,-2.303222,1.2282255,-9.308656,-0.0018325958,0.008552114,-0.0036651916,TREMOR,026369732c41
1776793510456,1901734907602184,-2.3080103,1.2378023,-9.320627,-0.0018325958,0.007941248,0.0,TREMOR,026369732c41
1776793510464,1901734915596329,-2.2984335,1.2378023,-9.323022,0.0,0.007941248,-6.1086525E-4,TREMOR,026369732c41
1776793510472,1901734923592935,-2.2744915,1.1971009,-9.3182335,0.0,0.0061086523,6.1086525E-4,TREMOR,026369732c41
1776793510480,1901734931590080,-2.2744915,1.2066777,-9.330204,0.0,0.0067195175,0.0030543262,TREMOR,026369732c41
1776793510488,1901734939585225,-2.2337902,1.1971009,-9.330204,0.0,0.004276057,0.0030543262,TREMOR,026369732c41
1776793510496,1901734947610984,-2.2409728,1.1779473,-9.320627,6.1086525E-4,0.0030543262,0.004276057,TREMOR,026369732c41
1776793510504,1901734955606667,-2.2122424,1.1899183,-9.3182335,0.0,0.0018325958,0.004886922,TREMOR,026369732c41
1776793510512,1901734963602351,-2.207454,1.163582,-9.337387,6.1086525E-4,6.1086525E-4,0.0036651916,TREMOR,026369732c41
1776793510520,1901734971597803,-2.1978772,1.2018893,-9.320627,0.0,0.0012217305,0.0030543262,TREMOR,026369732c41
1776793510528,1901734979592179,-2.207454,1.2018893,-9.337387,0.0,0.0012217305,0.004886922,TREMOR,026369732c41
1776793510536,1901734987589400,-2.1906946,1.2018893,-9.323022,6.1086525E-4,-6.1086525E-4,0.0030543262,TREMOR,026369732c41
1776793510544,1901734995585775,-2.1978772,1.1803415,-9.325416,-6.1086525E-4,-0.0018325958,0.004276057,TREMOR,026369732c41
1776793510552,1901735003580459,-2.2122424,1.2114661,-9.32781,0.0,-0.0030543262,0.0018325958,TREMOR,026369732c41
1776793510560,1901735011605988,-2.2050598,1.2090719,-9.308656,0.0,-0.0030543262,0.0012217305,TREMOR,026369732c41
1776793510568,1901735019601441,-2.2337902,1.2282255,-9.301474,-6.1086525E-4,-0.004276057,0.0,TREMOR,026369732c41
1776793510576,1901735027597969,-2.2529438,1.2282255,-9.303867,0.0,-0.004886922,0.0012217305,TREMOR,026369732c41
1776793510584,1901735035592422,-2.2697031,1.2473791,-9.296685,0.0,-0.005497787,-0.0018325958,TREMOR,026369732c41
1776793510592,1901735043588490,-2.27928,1.2354081,-9.299079,6.1086525E-4,-0.008552114,0.0,TREMOR,026369732c41
1776793510600,1901735051584788,-2.2960393,1.2449849,-9.299079,6.1086525E-4,-0.007330383,6.1086525E-4,TREMOR,026369732c41
1776793510608,1901735059580472,-2.2960393,1.2449849,-9.296685,-6.1086525E-4,-0.007330383,-0.0012217305,TREMOR,026369732c41
1776793510616,1901735067605000,-2.303222,1.2497733,-9.284714,-6.1086525E-4,-0.007330383,-0.0012217305,TREMOR,026369732c41
1776793510624,1901735075601068,-2.3319526,1.2545617,-9.287108,-6.1086525E-4,-0.0036651916,0.0,TREMOR,026369732c41
