# epoch_ms,event_ts_ns,AX,AY,AZ,GX,GY,GZ,label,sessionID
1777358874609,18716804849446,0.33997664,-0.2657564,9.940725,NaN,NaN,NaN,FALLS,045262ef5161
1777358874617,18716812935297,0.34955344,-0.2681506,9.935937,0.012217305,-0.013439035,-0.010995574,FALLS,045262ef5161
1777358874625,18716820931840,0.34955344,-0.2681506,9.921572,0.012217305,-0.013439035,-0.010995574,FALLS,045262ef5161
1777358874633,18716828925691,0.33518824,-0.2681506,9.933543,0.012217305,-0.013439035,-0.010995574,FALLS,045262ef5161
1777358874641,18716836922081,0.33039984,-0.2873042,9.92636,0.012217305,-0.013439035,-0.010995574,FALLS,045262ef5161
1777358874649,18716844919240,0.33758244,-0.2777274,9.947908,0.012217305,-0.013439035,-0.010995574,FALLS,045262ef5161
1777358874657,18716852944783,0.34476504,-0.2657564,9.933543,0.012217305,-0.013439035,-0.010995574,FALLS,045262ef5161
1777358874665,18716860903326,0.35673606,-0.2681506,9.938332,0.012217305,-0.013439035,-0.010995574,FALLS,045262ef5161
1777358874673,18716868937407,0.35673606,-0.272939,9.933543,0.012217305,-0.013439035,-0.010995574,FALLS,045262ef5161
1777358874681,18716876930412,0.33758244,-0.25857377,9.935937,0.012217305,-0.013439035,-0.010995574,FALLS,045262ef5161
1777358874689,18716884928802,0.34955344,-0.2801216,9.938332,0.012217305,-0.013439035,-0.010995574,FALLS,045262ef5161
1777358874697,18716892922115,0.33997664,-0.272939,9.933543,0.012217305,-0.013439035,-0.010995574,FALLS,045262ef5161
1777358874705,18716900918351,0.33758244,-0.2633622,9.959879,0.012217305,-0.013439035,-0.010995574,FALLS,045262ef5161
1777358874713,18716908943662,0.33758244,-0.2657564,9.959879,0.012217305,-0.013439035,-0.010995574,FALLS,045262ef5161
1777358874721,18716916939283,0.34476504,-0.260968,9.94312,0.012217305,-0.013439035,-0.010995574,FALLS,045262ef5161
1777358874729,18716924935365,0.33997664,-0.2633622,9.933543,0.012217305,-0.013439035,-0.010995574,FALLS,045262ef5161
1777358874737,18716932930447,0.35434186,-0.2753332,9.933543,0.012217305,-0.013439035,-0.010995574,FALLS,045262ef5161
1777358874745,18716940926682,0.33997664,-0.260968,9.952697,-6.1086525E-4,0.0012217305,6.1086525E-4,FALLS,045262ef5161
1777358874753,18716948922071,0.33518824,-0.272939,9.940725,6.1086525E-4,-6.1086525E-4,6.1086525E-4,FALLS,045262ef5161
1777358874761,18716956918076,0.34955344,-0.29448682,9.945514,0.0,-0.0018325958,6.1086525E-4,FALLS,045262ef5161
1777358874769,18716964945773,0.33039984,-0.28491,9.940725,0.0,-6.1086525E-4,6.1086525E-4,FALLS,045262ef5161
1777358874777,18716972939394,0.33279404,-0.272939,9.94312,0.0,-0.0012217305,-6.1086525E-4,FALLS,045262ef5161
1777358874785,18716980935322,0.34715924,-0.272939,9.938332,-6.1086525E-4,6.1086525E-4,6.1086525E-4,FALLS,045262ef5161
1777358874793,18716988930173,0.33997664,-0.2681506,9.945514,0.0,6.1086525E-4,6.1086525E-4,FALLS,045262ef5161
1777358874801,18716996926177,0.35434186,-0.25857377,9.947908,0.0012217305,-0.0018325958,0.0,FALLS,045262ef5161
1777358874809,18717004923105,0.35194764,-0.25378537,9.945514,6.1086525E-4,0.0,6.1086525E-4,FALLS,045262ef5161
1777358874817,18717012917879,0.35913026,-0.2801216,9.931149,0.0,-6.1086525E-4,-6.1086525E-4,FALLS,045262ef5161
1777358874825,18717020943038,0.34237084,-0.2705448,9.947908,-6.1086525E-4,0.0,0.0,FALLS,045262ef5161
1777358874833,18717028938120,0.35434186,-0.25857377,9.947908,6.1086525E-4,-0.0012217305,-0.0012217305,FALLS,045262ef5161
1777358874841,18717036804663,0.34715924,-0.2801216,9.938332,-6.1086525E-4,6.1086525E-4,0.0,FALLS,045262ef5161
1777358874849,18717044931975,0.33039984,-0.2896984,9.938332,0.0,0.0012217305,0.0,FALLS,045262ef5161
1777358874857,18717052925904,0.34715924,-0.2753332,9.940725,6.1086525E-4,6.1086525E-4,0.0,FALLS,045262ef5161
1777358874865,18717060922447,0.33279404,-0.2801216,9.938332,6.1086525E-4,0.0018325958,-6.1086525E-4,FALLS,045262ef5161
1777358874873,18717068916990,0.34237084,-0.2825158,9.964667,-6.1086525E-4,6.1086525E-4,-6.1086525E-4,FALLS,045262ef5161
1777358874881,18717076943688,0.33279404,-0.2801216,9.947908,0.0012217305,-6.1086525E-4,-0.002443461,FALLS,045262ef5161
1777358874889,18717084939692,0.32800564,-0.25139117,9.976639,0.0,0.0,-6.1086525E-4,FALLS,045262ef5161
1777358874897,18717092935389,0.33997664,-0.28491,9.962274,0.0,6.1086525E-4,6.1086525E-4,FALLS,045262ef5161
1777358874905,18717100930471,0.33039984,-0.2753332,9.94312,-6.1086525E-4,-6.1086525E-4,6.1086525E-4,FALLS,045262ef5161
1777358874913,18717108925861,0.35434186,-0.2657564,9.950302,-6.1086525E-4,0.0,0.0,FALLS,045262ef5161
1777358874921,18717116921943,0.33997664,-0.25378537,9.952697,0.0,-6.1086525E-4,6.1086525E-4,FALLS,045262ef5161
1777358874929,18717124915794,0.33039984,-0.260968,9.962274,6.1086525E-4,0.0,0.0,FALLS,045262ef5161
1777358874937,18717132943721,0.33997664,-0.25378537,9.940725,0.0,0.0,-6.1086525E-4,FALLS,045262ef5161
1777358874945,18717140939111,0.33039984,-0.2801216,9.967062,0.0,0.0,-6.1086525E-4,FALLS,045262ef5161
1777358874953,18717148934577,0.31364042,-0.24899697,9.945514,0.0012217305,0.0,6.1086525E-4,FALLS,045262ef5161
1777358874961,18717156930505,0.34237084,-0.260968,9.935937,6.1086525E-4,-0.0018325958,6.1086525E-4,FALLS,045262ef5161
1777358874969,18717164925972,0.32321724,-0.272939,9.959879,0.002443461,0.0018325958,6.1086525E-4,FALLS,045262ef5161
1777358874977,18717172921899,0.40462008,-0.30406362,9.981427,0.0,-0.004276057,6.1086525E-4,FALLS,045262ef5161
1777358874985,18717180917289,0.30885202,-0.22505496,9.957485,0.0036651916,-6.1086525E-4,-0.002443461,FALLS,045262ef5161
1777358874993,18717188942217,0.2873042,-0.25378537,9.988609,6.1086525E-4,-0.0018325958,0.0030543262,FALLS,045262ef5161
1777358875001,18717196936991,0.29448682,-0.18674773,9.962274,0.0018325958,0.0030543262,6.1086525E-4,FALLS,045262ef5161
1777358875009,18717204934842,0.39264908,-0.2896984,9.859323,0.002443461,-0.0018325958,0.0012217305,FALLS,045262ef5161
1777358875017,18717212929309,0.36631286,-0.29448682,9.89763,0.0,-0.002443461,0.0036651916,FALLS,045262ef5161
1777358875025,18717220925697,0.37349546,-0.2777274,9.933543,-6.1086525E-4,-0.0018325958,0.0,FALLS,045262ef5161
1777358875033,18717228920702,0.4141969,-0.30406362,9.909601,0.0012217305,0.0018325958,-6.1086525E-4,FALLS,045262ef5161
1777358875041,18717236971784,0.4141969,-0.39025488,9.940725,0.0012217305,-0.002443461,6.1086525E-4,FALLS,045262ef5161
1777358875049,18717244914020,0.32321724,-0.22266077,9.976639,-6.1086525E-4,0.0012217305,-0.002443461,FALLS,045262ef5161
1777358875057,18717252938563,0.2633622,-0.18195933,9.907207,0.002443461,0.012217305,-6.1086525E-4,FALLS,045262ef5161
1777358875065,18717260932799,0.34955344,-0.33039984,9.864111,0.0061086523,0.0036651916,-0.0018325958,FALLS,045262ef5161
1777358875073,18717268928803,0.32800564,-0.31603462,10.024523,-0.0018325958,-0.007330383,0.0,FALLS,045262ef5161
1777358875081,18717276924424,0.33039984,-0.30166942,9.97185,-0.005497787,0.005497787,0.0012217305,FALLS,045262ef5161
1777358875089,18717284921736,0.36870706,-0.25617957,9.933543,0.0012217305,0.0,6.1086525E-4,FALLS,045262ef5161
1777358875097,18717292947511,0.33758244,-0.2873042,9.967062,-6.1086525E-4,-0.0018325958,-6.1086525E-4,FALLS,045262ef5161
1777358875105,18717300941977,0.35194764,-0.30645782,9.947908,-0.0012217305,0.005497787,-0.0012217305,FALLS,045262ef5161
1777358875113,18717308937750,0.36152446,-0.29688102,9.945514,0.0,6.1086525E-4,-6.1086525E-4,FALLS,045262ef5161
1777358875121,18717316933679,0.35913026,-0.29209262,9.94312,6.1086525E-4,0.0,-0.0018325958,FALLS,045262ef5161
1777358875129,18717324929376,0.35434186,-0.29209262,9.945514,-6.1086525E-4,0.0012217305,-6.1086525E-4,FALLS,045262ef5161
1777358875137,18717332924150,0.32800564,-0.24660277,9.940725,0.0018325958,0.0018325958,6.1086525E-4,FALLS,045262ef5161
1777358875145,18717340920155,0.2825158,-0.21547815,9.928755,0.0030543262,0.004276057,-6.1086525E-4,FALLS,045262ef5161
1777358875153,18717348916468,0.2873042,-0.21547815,9.938332,0.002443461,0.0036651916,-0.0012217305,FALLS,045262ef5161
1777358875161,18717356942703,0.30645782,-0.19632454,9.969456,0.002443461,0.0036651916,0.0012217305,FALLS,045262ef5161
1777358875169,18717364939862,0.29448682,-0.18435353,9.991004,0.0012217305,0.0018325958,0.0018325958,FALLS,045262ef5161
1777358875177,18717372933174,0.30885202,-0.22026655,9.991004,0.0018325958,0.0036651916,-0.0012217305,FALLS,045262ef5161
1777358875185,18717380929795,0.34476504,-0.20590134,10.024523,-6.1086525E-4,0.0,6.1086525E-4,FALLS,045262ef5161
1777358875194,18717389015338,0.34237084,-0.2896984,9.998186,-0.0012217305,0.0012217305,0.0018325958,FALLS,045262ef5161
1777358875201,18717396919650,0.24899697,-0.20829555,10.0029745,-0.0012217305,-0.002443461,0.0018325958,FALLS,045262ef5161
1777358875209,18717404947270,0.36391866,-0.35673606,9.888053,0.0018325958,0.0030543262,-0.0018325958,FALLS,045262ef5161
1777358875217,18717412997198,0.3854665,-0.33279404,9.94312,-0.0018325958,-0.0036651916,-6.1086525E-4,FALLS,045262ef5161
1777358875225,18717420937126,0.39504328,-0.36152446,9.94312,-0.0036651916,-0.0036651916,-0.0012217305,FALLS,045262ef5161
1777358875233,18717428933131,0.44771573,-0.30406362,9.938332,-0.0030543262,-0.002443461,-0.002443461,FALLS,045262ef5161
1777358875241,18717436983983,0.4333505,-0.30406362,9.921572,-0.0012217305,-0.0030543262,-0.0018325958,FALLS,045262ef5161
1777358875249,18717444925833,0.3878607,-0.23223756,9.945514,6.1086525E-4,0.0030543262,-6.1086525E-4,FALLS,045262ef5161
1777358875257,18717452921145,0.35194764,-0.24181437,9.91439,0.002443461,0.0036651916,-6.1086525E-4,FALLS,045262ef5161
1777358875265,18717460879304,0.37110126,-0.23223756,9.900024,0.0036651916,0.004886922,6.1086525E-4,FALLS,045262ef5161
1777358875273,18717468911002,0.37110126,-0.23942018,9.938332,0.002443461,0.0030543262,6.1086525E-4,FALLS,045262ef5161
1777358875281,18717476936853,0.38067806,-0.18674773,9.976639,0.0,0.0030543262,0.0036651916,FALLS,045262ef5161
1777358875289,18717484933242,0.2896984,-0.19393034,9.991004,0.002443461,0.004886922,0.0018325958,FALLS,045262ef5161
1777358875297,18717492928247,0.20111294,-0.18195933,9.995792,0.002443461,0.004276057,0.002443461,FALLS,045262ef5161
1777358875305,18717500925252,-0.23223756,0.18195933,10.0269165,0.0036651916,0.012217305,0.002443461,FALLS,045262ef5161
1777358875313,18717508919718,-0.21547815,0.37349546,9.895236,0.015882496,0.023823744,-0.002443461,FALLS,045262ef5161
1777358875321,18717516944569,-0.19632454,0.1412579,9.80665,0.027488936,0.025045475,-0.007330383,FALLS,045262ef5161
1777358875329,18717524943036,-0.1316811,0.51235914,9.945514,0.017104227,0.004276057,-0.007941248,FALLS,045262ef5161
1777358875337,18717532936963,0.01436521,0.2681506,9.940725,0.005497787,0.007330383,-0.016493361,FALLS,045262ef5161
1777358875345,18717540931737,-0.0023942017,0.023942016,10.2735195,0.005497787,-0.0012217305,-0.007330383,FALLS,045262ef5161
1777358875353,18717548927665,0.08140286,-0.05267244,10.280702,-0.014049901,-6.1086525E-4,-0.007941248,FALLS,045262ef5161
1777358875361,18717556923747,0.04070143,-0.20111294,10.132261,-0.004276057,-0.004886922,-0.012217305,FALLS,045262ef5161
1777358875369,18717564920598,-0.01436521,-0.20111294,10.01734,-0.007941248,-6.1086525E-4,-0.01282817,FALLS,045262ef5161
1777358875377,18717572946142,-0.11971009,-0.18435353,9.856929,-0.008552114,6.1086525E-4,-0.016493361,FALLS,045262ef5161
1777358875385,18717580940377,-0.19393034,-0.14844051,9.837775,-0.0030543262,0.004886922,-0.017715093,FALLS,045262ef5161
1777358875393,18717588936382,-0.009576807,-0.19632454,9.742006,-0.0030543262,0.0067195175,-0.018325957,FALLS,045262ef5161
1777358875401,18717596932694,0.33039984,-0.4381389,9.643845,-0.0061086523,-0.0036651916,-0.019547688,FALLS,045262ef5161
1777358875409,18717604928622,0.59376204,-0.79966336,9.938332,-0.015882496,-0.014660766,-0.023823744,FALLS,045262ef5161
1777358875417,18717612923781,0.8499416,-1.1228806,10.565612,-0.029321533,-0.017715093,-0.02687807,FALLS,045262ef5161
1777358875425,18717620918862,0.8714894,-1.1683705,10.884041,-0.037873644,-0.019547688,-0.03726278,FALLS,045262ef5161
1777358875433,18717628914560,1.1899183,-1.4149733,10.488997,-0.04153884,-0.03481932,-0.043982297,FALLS,045262ef5161
1777358875441,18717636965872,1.1899183,-1.2545617,10.0748005,-0.03176499,-0.062308256,-0.04886922,FALLS,045262ef5161
1777358875449,18717644937339,0.9816227,-1.0342951,9.720459,-0.032375857,-0.08002335,-0.047647487,FALLS,045262ef5161
1777358875457,18717652933344,1.4389153,-0.9768343,9.277532,-0.02076942,-0.048258353,-0.04153884,FALLS,045262ef5161
1777358875465,18717660891734,1.4891934,-0.37349546,9.208099,-0.014660766,-0.059864793,-0.02076942,FALLS,045262ef5161
1777358875473,18717668923122,1.5969325,0.04070143,8.90643,-6.1086525E-4,-0.031154128,-0.014049901,FALLS,045262ef5161
1777358875481,18717676920050,0.7613561,0.34237084,8.631097,0.030543262,0.031154128,6.1086525E-4,FALLS,045262ef5161
1777358875489,18717684946594,0.22026655,0.48123455,8.860941,0.043982297,0.09162979,0.004886922,FALLS,045262ef5161
1777358875497,18717692940445,-0.1316811,0.22266077,9.466674,0.04886922,0.12583824,-0.0018325958,FALLS,045262ef5161
1777358875505,18717700937373,-0.21787235,-0.011971008,10.54167,0.026267206,0.10934488,-0.005497787,FALLS,045262ef5161
1777358875513,18717708931532,-0.19871874,0.08379706,11.255142,-0.009773844,0.08552113,-0.004276057,FALLS,045262ef5161
1777358875521,18717716952459,-0.17477672,-0.031124622,11.398794,-0.021380283,0.05375614,-0.0036651916,FALLS,045262ef5161
1777358875529,18717724923772,0.19393034,-0.17717093,11.042058,-0.02076942,0.03176499,-0.002443461,FALLS,045262ef5161
1777358875537,18717732919854,0.41180268,-0.045489833,10.431537,-0.028099801,-0.015271631,-0.0030543262,FALLS,045262ef5161
1777358875546,18717741030859,0.6871359,0.20590134,9.653421,-0.034208454,-0.030543262,-0.0036651916,FALLS,045262ef5161
1777358875553,18717748940402,0.8882488,0.25857377,9.287108,-0.03848451,-0.027488936,-0.0030543262,FALLS,045262ef5161
1777358875562,18717757052715,1.103727,0.5315128,9.217676,-0.05131268,-0.030543262,0.004276057,FALLS,045262ef5161
1777358875569,18717764931873,1.3239936,0.6631939,8.939949,-0.06291912,-0.015882496,0.009773844,FALLS,045262ef5161
1777358875577,18717772926955,1.9273324,1.1875241,9.528923,-0.09468412,0.05009095,0.028710667,FALLS,045262ef5161
1777358875585,18717780947883,2.4971523,1.946486,11.161768,-0.13072516,0.07696902,0.04520403,FALLS,045262ef5161
1777358875593,18717788918042,3.881001,3.2632968,11.575965,-0.12705997,0.043982297,0.04642576,FALLS,045262ef5161
1777358875601,18717796944739,6.2943563,5.734113,10.055647,-0.13805555,-0.013439035,0.0580322,FALLS,045262ef5161
1777358875609,18717804942974,4.771644,5.00867,4.429273,-0.22418754,-0.15088372,0.013439035,FALLS,045262ef5161
1777358875617,18717812934979,3.3901896,2.2577322,1.4413095,-0.47708577,0.021380283,0.020158553,FALLS,045262ef5161
1777358875625,18717820791522,4.1419687,1.0606314,6.8186865,-0.8344419,0.22540927,0.11301007,FALLS,045262ef5161
1777358875633,18717828926912,7.4148426,1.0606314,11.860875,-0.9950995,-0.086132,0.20525073,FALLS,045262ef5161
1777358875641,18717836922609,12.248735,3.3423057,21.435287,-1.174083,-2.0011945,0.25778514,FALLS,045262ef5161
1777358875649,18717844919536,13.254301,4.987122,20.774488,-1.6536123,-3.794084,0.27550024,FALLS,045262ef5161
1777358875657,18717852945464,6.157887,3.3734303,7.2233067,-0.9407325,0.23884831,-0.06414085,FALLS,045262ef5161
1777358875665,18717860940546,2.9137435,2.3918076,4.6519337,-0.77824235,2.82403,-0.18448131,FALLS,045262ef5161
1777358877930,18720125065532,0.19393034,-0.4309563,9.974244,-1.1954633,2.8393016,-0.004276057,FALLS,045262ef5161
1777358877938,18720133061229,0.18435353,-0.45010993,10.019734,-0.002443461,0.009162978,0.009162978,FALLS,045262ef5161
1777358877946,18720141026233,0.19393034,-0.45729253,9.993398,-0.0018325958,0.009162978,0.008552114,FALLS,045262ef5161
1777358877954,18720149052392,0.23223756,-0.4141969,9.969456,-0.0018325958,0.008552114,0.007330383,FALLS,045262ef5161
1777358877962,18720157115474,0.24660277,-0.4237737,9.921572,-0.0030543262,0.007941248,0.009162978,FALLS,045262ef5161
1777358877969,18720164926556,0.2681506,-0.39983168,9.933543,-0.0036651916,0.0067195175,0.008552114,FALLS,045262ef5161
1777358877977,18720172921330,0.2705448,-0.37828386,9.923966,-0.004886922,0.008552114,0.010995574,FALLS,045262ef5161
1777358877985,18720180925334,0.29209262,-0.35673606,9.919178,-0.004276057,0.008552114,0.01038471,FALLS,045262ef5161
1777358877993,18720188944032,0.30166942,-0.38307226,9.957485,-0.008552114,0.01038471,0.013439035,FALLS,045262ef5161
1777358878001,18720196952729,0.2633622,-0.39743748,9.962274,-0.008552114,0.012217305,0.016493361,FALLS,045262ef5161
1777358878009,18720204937042,0.25857377,-0.40462008,10.007763,-0.009162978,0.014660766,0.015271631,FALLS,045262ef5161
1777358878017,18720212928970,0.25857377,-0.39743748,10.0269165,-0.009773844,0.014049901,0.02076942,FALLS,045262ef5161
1777358878025,18720220925898,0.23223756,-0.39264908,10.019734,-0.01038471,0.01160644,0.020158553,FALLS,045262ef5161
1777358878033,18720228923210,0.24181437,-0.40701428,10.038888,-0.010995574,0.012217305,0.022602014,FALLS,045262ef5161
# SUMMARY,duration_ms=3479,accN=147,gyroN=147,accAvg=(0.7928065066099116,0.008371562931407877,9.953706345590604),gyroAvg=(-0.060824725527053404,0.002489170890703772,0.002559816484580285)
